"","participant_id","structure_condition","load_condition","block","trial_type","stimulus","shape","fill","target_word","suffix","irregular","word_typed","correct_word","edit_distance","normed_edit_distance","accuracy","target_sequence","sequence_typed","digits_correct","response_time"
"1","1","unstructured","load","training","interference",NA,NA,NA,NA,NA,NA,NA,NA,NA,NA,NA,"973","973",3,3537.60000000894
"2","1","unstructured","load","training","interference",NA,NA,NA,NA,NA,NA,NA,NA,NA,NA,NA,"624","624",3,4399.20000000298
"3","1","unstructured","load","training","interference",NA,NA,NA,NA,NA,NA,NA,NA,NA,NA,NA,"614","624",2,4819.90000000596
"4","1","unstructured","load","training","interference",NA,NA,NA,NA,NA,NA,NA,NA,NA,NA,NA,"175","175",3,2237.10000000894
"5","1","unstructured","load","training","interference",NA,NA,NA,NA,NA,NA,NA,NA,NA,NA,NA,"572","572",3,2171.39999999106
"6","1","unstructured","load","training","interference",NA,NA,NA,NA,NA,NA,NA,NA,NA,NA,NA,"279","279",3,3666.40000000596
"7","1","unstructured","load","training","interference",NA,NA,NA,NA,NA,NA,NA,NA,NA,NA,NA,"806","806",3,2919.70000000298
"8","1","unstructured","load","training","interference",NA,NA,NA,NA,NA,NA,NA,NA,NA,NA,NA,"204","204",3,3449.70000000298
"9","1","unstructured","load","training","interference",NA,NA,NA,NA,NA,NA,NA,NA,NA,NA,NA,"264","264",3,2485.5
"10","1","unstructured","load","training","interference",NA,NA,NA,NA,NA,NA,NA,NA,NA,NA,NA,"835","835",3,2155.5
"11","1","unstructured","load","training","interference",NA,NA,NA,NA,NA,NA,NA,NA,NA,NA,NA,"708","708",3,1920.40000000596
"12","1","unstructured","load","training","interference",NA,NA,NA,NA,NA,NA,NA,NA,NA,NA,NA,"608","608",3,1680.19999998808
"13","1","unstructured","load","training","interference",NA,NA,NA,NA,NA,NA,NA,NA,NA,NA,NA,"742","742",3,1748.29999999702
"14","1","unstructured","load","training","interference",NA,NA,NA,NA,NA,NA,NA,NA,NA,NA,NA,"809","809",3,1451.70000000298
"15","1","unstructured","load","training","interference",NA,NA,NA,NA,NA,NA,NA,NA,NA,NA,NA,"726","726",3,2834.09999999404
"16","1","unstructured","load","training","interference",NA,NA,NA,NA,NA,NA,NA,NA,NA,NA,NA,"908","908",3,1467.40000000596
"17","1","unstructured","load","training","interference",NA,NA,NA,NA,NA,NA,NA,NA,NA,NA,NA,"053","053",3,4208.5
"18","1","unstructured","load","training","interference",NA,NA,NA,NA,NA,NA,NA,NA,NA,NA,NA,"851","851",3,3049.70000000298
"19","1","unstructured","load","training","interference",NA,NA,NA,NA,NA,NA,NA,NA,NA,NA,NA,"948","948",3,1695
"20","1","unstructured","load","training","interference",NA,NA,NA,NA,NA,NA,NA,NA,NA,NA,NA,"570","570",3,2837.60000000894
"21","1","unstructured","load","training","interference",NA,NA,NA,NA,NA,NA,NA,NA,NA,NA,NA,"793","793",3,1822.5
"22","1","unstructured","load","training","interference",NA,NA,NA,NA,NA,NA,NA,NA,NA,NA,NA,"135","135",3,3714.20000000298
"23","1","unstructured","load","training","interference",NA,NA,NA,NA,NA,NA,NA,NA,NA,NA,NA,"708","312",0,3848.10000000894
"24","1","unstructured","load","training","interference",NA,NA,NA,NA,NA,NA,NA,NA,NA,NA,NA,"528","528",3,1601.90000000596
"25","1","unstructured","load","training","interference",NA,NA,NA,NA,NA,NA,NA,NA,NA,NA,NA,"573","573",3,1479.70000000298
"26","1","unstructured","load","training","interference",NA,NA,NA,NA,NA,NA,NA,NA,NA,NA,NA,"250","250",3,5905.20000000298
"27","1","unstructured","load","training","interference",NA,NA,NA,NA,NA,NA,NA,NA,NA,NA,NA,"371","371",3,1846
"28","1","unstructured","load","training","interference",NA,NA,NA,NA,NA,NA,NA,NA,NA,NA,NA,"752","572",1,1425.69999998808
"29","1","unstructured","load","training","interference",NA,NA,NA,NA,NA,NA,NA,NA,NA,NA,NA,"316","316",3,1635.20000000298
"30","1","unstructured","load","training","interference",NA,NA,NA,NA,NA,NA,NA,NA,NA,NA,NA,"173","173",3,1297.10000000894
"31","1","unstructured","load","training","interference",NA,NA,NA,NA,NA,NA,NA,NA,NA,NA,NA,"381","381",3,1068.40000000596
"32","1","unstructured","load","training","interference",NA,NA,NA,NA,NA,NA,NA,NA,NA,NA,NA,"483","483",3,1119.5
"33","1","unstructured","load","training","interference",NA,NA,NA,NA,NA,NA,NA,NA,NA,NA,NA,"029","092",1,2063.69999998808
"34","1","unstructured","load","training","interference",NA,NA,NA,NA,NA,NA,NA,NA,NA,NA,NA,"359","359",3,1984.59999999404
"35","1","unstructured","load","training","interference",NA,NA,NA,NA,NA,NA,NA,NA,NA,NA,NA,"625","625",3,1680.79999999702
"36","1","unstructured","load","training","interference",NA,NA,NA,NA,NA,NA,NA,NA,NA,NA,NA,"391","391",3,1399.09999999404
"37","1","unstructured","load","training","interference",NA,NA,NA,NA,NA,NA,NA,NA,NA,NA,NA,"706","706",3,1450.09999999404
"38","1","unstructured","load","training","interference",NA,NA,NA,NA,NA,NA,NA,NA,NA,NA,NA,"617","617",3,2052.39999999106
"39","1","unstructured","load","training","interference",NA,NA,NA,NA,NA,NA,NA,NA,NA,NA,NA,"742","742",3,1624.09999999404
"40","1","unstructured","load","training","interference",NA,NA,NA,NA,NA,NA,NA,NA,NA,NA,NA,"384","384",3,1521
"41","1","unstructured","load","training","interference",NA,NA,NA,NA,NA,NA,NA,NA,NA,NA,NA,"579","579",3,1649.69999998808
"42","1","unstructured","load","training","interference",NA,NA,NA,NA,NA,NA,NA,NA,NA,NA,NA,"194","194",3,1707.30000001192
"43","1","unstructured","load","training","interference",NA,NA,NA,NA,NA,NA,NA,NA,NA,NA,NA,"274","274",3,1734.90000000596
"44","1","unstructured","load","training","interference",NA,NA,NA,NA,NA,NA,NA,NA,NA,NA,NA,"495","495",3,1313.09999999404
"45","1","unstructured","load","training","interference",NA,NA,NA,NA,NA,NA,NA,NA,NA,NA,NA,"283","283",3,2593.39999999106
"46","1","unstructured","load","training","interference",NA,NA,NA,NA,NA,NA,NA,NA,NA,NA,NA,"192","193",2,1866.20000000298
"47","1","unstructured","load","training","interference",NA,NA,NA,NA,NA,NA,NA,NA,NA,NA,NA,"407","407",3,1603.60000000894
"48","1","unstructured","load","training","interference",NA,NA,NA,NA,NA,NA,NA,NA,NA,NA,NA,"942","942",3,1253.10000000894
"49","1","unstructured","load","training","interference",NA,NA,NA,NA,NA,NA,NA,NA,NA,NA,NA,"293","923",1,1457.19999998808
"50","1","unstructured","load","training","interference",NA,NA,NA,NA,NA,NA,NA,NA,NA,NA,NA,"173","173",3,2169.90000000596
"51","1","unstructured","load","training","interference",NA,NA,NA,NA,NA,NA,NA,NA,NA,NA,NA,"147","147",3,2321.5
"52","1","unstructured","load","training","interference",NA,NA,NA,NA,NA,NA,NA,NA,NA,NA,NA,"250","259",2,2593.70000000298
"53","1","unstructured","load","training","interference",NA,NA,NA,NA,NA,NA,NA,NA,NA,NA,NA,"302","302",3,1520.29999999702
"54","1","unstructured","load","training","interference",NA,NA,NA,NA,NA,NA,NA,NA,NA,NA,NA,"148","148",3,1713.20000000298
"55","1","unstructured","load","training","interference",NA,NA,NA,NA,NA,NA,NA,NA,NA,NA,NA,"593","593",3,1794.79999999702
"56","1","unstructured","load","testing",NA,"stim02","square","striped","gagalu","lu",1,"neneri",0,6,1,0,NA,NA,NA,13957.900000006
"57","1","unstructured","load","testing",NA,"stim05","triangle","striped","poposu","su",1,"popofa",0,2,0.333333333333333,0.666666666666667,NA,NA,NA,4359.70000000298
"58","1","unstructured","load","testing",NA,"stim03","square","spotted","gagapa","pa",1,"gagado",0,2,0.333333333333333,0.666666666666667,NA,NA,NA,9542.09999999404
"59","1","unstructured","load","testing",NA,"stim06","triangle","spotted","popova","va",1,"gagado",0,6,1,0,NA,NA,NA,5578.40000000596
"60","1","unstructured","load","testing",NA,"stim08","circle","striped","neneri","ri",1,"popova",0,6,1,0,NA,NA,NA,5287.20000000298
"61","1","unstructured","load","testing",NA,"stim04","triangle","checkerboard","popofa","fa",1,"gagado",0,6,1,0,NA,NA,NA,4193.29999999702
"62","1","unstructured","load","testing",NA,"stim07","circle","checkerboard","nenebi","bi",1,"gagado",0,6,1,0,NA,NA,NA,2725.70000000298
"63","1","unstructured","load","testing",NA,"stim01","square","checkerboard","gagado","do",1,"popova",0,6,1,0,NA,NA,NA,4035.90000000596
"64","1","unstructured","load","testing",NA,"stim09","circle","spotted","neneni","ni",1,"g",0,6,1,0,NA,NA,NA,3359.40000000596
"65","2","unstructured","no load","testing",NA,"stim04","triangle","checkerboard","kikiri","ri",1,"kipopa",0,4,0.666666666666667,0.333333333333333,NA,NA,NA,11245.0000000001
"66","2","unstructured","no load","testing",NA,"stim07","circle","checkerboard","momopa","pa",1,"momopa",1,0,0,1,NA,NA,NA,9591.00000000006
"67","2","unstructured","no load","testing",NA,"stim05","triangle","striped","kikifa","fa",1,"kikipo",0,2,0.333333333333333,0.666666666666667,NA,NA,NA,9362
"68","2","unstructured","no load","testing",NA,"stim08","circle","striped","momova","va",1,"movona",0,2,0.333333333333333,0.666666666666667,NA,NA,NA,6185
"69","2","unstructured","no load","testing",NA,"stim02","square","striped","popolu","lu",1,"popolu",1,0,0,1,NA,NA,NA,8864
"70","2","unstructured","no load","testing",NA,"stim06","triangle","spotted","kikini","ni",1,"kikini",1,0,0,1,NA,NA,NA,4227.00000000006
"71","2","unstructured","no load","testing",NA,"stim09","circle","spotted","momodo","do",1,"momodo",1,0,0,1,NA,NA,NA,4662
"72","2","unstructured","no load","testing",NA,"stim03","square","spotted","poposu","su",1,"poposu",1,0,0,1,NA,NA,NA,9804
"73","2","unstructured","no load","testing",NA,"stim01","square","checkerboard","popobi","bi",1,"popobo",0,1,0.166666666666667,0.833333333333333,NA,NA,NA,6004.00000000006
"74","3","unstructured","load","training","interference",NA,NA,NA,NA,NA,NA,NA,NA,NA,NA,NA,"194","194",3,4251.10000000149
"75","3","unstructured","load","training","interference",NA,NA,NA,NA,NA,NA,NA,NA,NA,NA,NA,"869","869",3,4062.60000000149
"76","3","unstructured","load","training","interference",NA,NA,NA,NA,NA,NA,NA,NA,NA,NA,NA,"860","861",2,3490.19999999925
"77","3","unstructured","load","training","interference",NA,NA,NA,NA,NA,NA,NA,NA,NA,NA,NA,"253","253",3,3070.19999999925
"78","3","unstructured","load","training","interference",NA,NA,NA,NA,NA,NA,NA,NA,NA,NA,NA,"168","168",3,3094.5
"79","3","unstructured","load","training","interference",NA,NA,NA,NA,NA,NA,NA,NA,NA,NA,NA,"264","264",3,4774.39999999851
"80","3","unstructured","load","training","interference",NA,NA,NA,NA,NA,NA,NA,NA,NA,NA,NA,"924","924",3,4009.80000000075
"81","3","unstructured","load","training","interference",NA,NA,NA,NA,NA,NA,NA,NA,NA,NA,NA,"382","382",3,3332.69999999925
"82","3","unstructured","load","training","interference",NA,NA,NA,NA,NA,NA,NA,NA,NA,NA,NA,"590","393",1,3874.5
"83","3","unstructured","load","training","interference",NA,NA,NA,NA,NA,NA,NA,NA,NA,NA,NA,"297","297",3,3139.90000000224
"84","3","unstructured","load","training","interference",NA,NA,NA,NA,NA,NA,NA,NA,NA,NA,NA,"739","739",3,3114.79999999702
"85","3","unstructured","load","training","interference",NA,NA,NA,NA,NA,NA,NA,NA,NA,NA,NA,"475","475",3,2858.10000000149
"86","3","unstructured","load","training","interference",NA,NA,NA,NA,NA,NA,NA,NA,NA,NA,NA,"604","604",3,3163.89999999851
"87","3","unstructured","load","training","interference",NA,NA,NA,NA,NA,NA,NA,NA,NA,NA,NA,"792","792",3,2522.89999999851
"88","3","unstructured","load","training","interference",NA,NA,NA,NA,NA,NA,NA,NA,NA,NA,NA,"091","091",3,2712.5
"89","3","unstructured","load","training","interference",NA,NA,NA,NA,NA,NA,NA,NA,NA,NA,NA,"580","580",3,2534.59999999776
"90","3","unstructured","load","training","interference",NA,NA,NA,NA,NA,NA,NA,NA,NA,NA,NA,"357","357",3,2822.40000000224
"91","3","unstructured","load","training","interference",NA,NA,NA,NA,NA,NA,NA,NA,NA,NA,NA,"071","071",3,2649.09999999776
"92","3","unstructured","load","training","interference",NA,NA,NA,NA,NA,NA,NA,NA,NA,NA,NA,"486","486",3,2985.79999999702
"93","3","unstructured","load","training","interference",NA,NA,NA,NA,NA,NA,NA,NA,NA,NA,NA,"642","642",3,2590.19999999925
"94","3","unstructured","load","training","interference",NA,NA,NA,NA,NA,NA,NA,NA,NA,NA,NA,"140","140",3,2771.40000000224
"95","3","unstructured","load","training","interference",NA,NA,NA,NA,NA,NA,NA,NA,NA,NA,NA,"731","731",3,2368.5
"96","3","unstructured","load","training","interference",NA,NA,NA,NA,NA,NA,NA,NA,NA,NA,NA,"926","926",3,3503
"97","3","unstructured","load","training","interference",NA,NA,NA,NA,NA,NA,NA,NA,NA,NA,NA,"248","248",3,2840.60000000149
"98","3","unstructured","load","training","interference",NA,NA,NA,NA,NA,NA,NA,NA,NA,NA,NA,"270","240",2,3158.09999999776
"99","3","unstructured","load","training","interference",NA,NA,NA,NA,NA,NA,NA,NA,NA,NA,NA,"905","905",3,2768.29999999702
"100","3","unstructured","load","training","interference",NA,NA,NA,NA,NA,NA,NA,NA,NA,NA,NA,"286","286",3,3628.69999999925
"101","3","unstructured","load","training","interference",NA,NA,NA,NA,NA,NA,NA,NA,NA,NA,NA,"849","849",3,2738
"102","3","unstructured","load","training","interference",NA,NA,NA,NA,NA,NA,NA,NA,NA,NA,NA,"152","152",3,2671.10000000149
"103","3","unstructured","load","training","interference",NA,NA,NA,NA,NA,NA,NA,NA,NA,NA,NA,"908","253",0,3874.10000000149
"104","3","unstructured","load","training","interference",NA,NA,NA,NA,NA,NA,NA,NA,NA,NA,NA,"620","620",3,3043.29999999702
"105","3","unstructured","load","training","interference",NA,NA,NA,NA,NA,NA,NA,NA,NA,NA,NA,"379","379",3,3111.89999999851
"106","3","unstructured","load","training","interference",NA,NA,NA,NA,NA,NA,NA,NA,NA,NA,NA,"639","639",3,2865.20000000298
"107","3","unstructured","load","training","interference",NA,NA,NA,NA,NA,NA,NA,NA,NA,NA,NA,"714","714",3,2888.5
"108","3","unstructured","load","training","interference",NA,NA,NA,NA,NA,NA,NA,NA,NA,NA,NA,"370","714",0,2688.70000000298
"109","3","unstructured","load","training","interference",NA,NA,NA,NA,NA,NA,NA,NA,NA,NA,NA,"807","807",3,2554.80000000075
"110","3","unstructured","load","training","interference",NA,NA,NA,NA,NA,NA,NA,NA,NA,NA,NA,"184","184",3,2399.80000000075
"111","3","unstructured","load","training","interference",NA,NA,NA,NA,NA,NA,NA,NA,NA,NA,NA,"407","407",3,2914.30000000075
"112","3","unstructured","load","training","interference",NA,NA,NA,NA,NA,NA,NA,NA,NA,NA,NA,"139","139",3,1917.10000000149
"113","3","unstructured","load","training","interference",NA,NA,NA,NA,NA,NA,NA,NA,NA,NA,NA,"942","942",3,1973.79999999702
"114","3","unstructured","load","training","interference",NA,NA,NA,NA,NA,NA,NA,NA,NA,NA,NA,"486","486",3,1730.69999999925
"115","3","unstructured","load","training","interference",NA,NA,NA,NA,NA,NA,NA,NA,NA,NA,NA,"281","281",3,1802.10000000149
"116","3","unstructured","load","training","interference",NA,NA,NA,NA,NA,NA,NA,NA,NA,NA,NA,"471","471",3,1929.60000000149
"117","3","unstructured","load","training","interference",NA,NA,NA,NA,NA,NA,NA,NA,NA,NA,NA,"063","063",3,1754.10000000149
"118","3","unstructured","load","training","interference",NA,NA,NA,NA,NA,NA,NA,NA,NA,NA,NA,"427","471",1,1949.39999999851
"119","3","unstructured","load","training","interference",NA,NA,NA,NA,NA,NA,NA,NA,NA,NA,NA,"491","491",3,1220.59999999776
"120","3","unstructured","load","training","interference",NA,NA,NA,NA,NA,NA,NA,NA,NA,NA,NA,"795","795",3,2448
"121","3","unstructured","load","training","interference",NA,NA,NA,NA,NA,NA,NA,NA,NA,NA,NA,"730","730",3,1141.69999999925
"122","3","unstructured","load","training","interference",NA,NA,NA,NA,NA,NA,NA,NA,NA,NA,NA,"427","427",3,1438.90000000224
"123","3","unstructured","load","training","interference",NA,NA,NA,NA,NA,NA,NA,NA,NA,NA,NA,"036","036",3,1194.30000000075
"124","3","unstructured","load","training","interference",NA,NA,NA,NA,NA,NA,NA,NA,NA,NA,NA,"620","620",3,4322.89999999851
"125","3","unstructured","load","training","interference",NA,NA,NA,NA,NA,NA,NA,NA,NA,NA,NA,"813","813",3,1423.90000000224
"126","3","unstructured","load","training","interference",NA,NA,NA,NA,NA,NA,NA,NA,NA,NA,NA,"419","419",3,1553.89999999851
"127","3","unstructured","load","training","interference",NA,NA,NA,NA,NA,NA,NA,NA,NA,NA,NA,"594","594",3,2544.39999999851
"128","3","unstructured","load","training","interference",NA,NA,NA,NA,NA,NA,NA,NA,NA,NA,NA,"829","829",3,2137.90000000224
"129","3","unstructured","load","testing",NA,"stim02","square","striped","popofa","fa",1,"popofa",1,0,0,1,NA,NA,NA,5490
"130","3","unstructured","load","testing",NA,"stim04","triangle","checkerboard","lalado","do",1,"lalani",0,2,0.333333333333333,0.666666666666667,NA,NA,NA,6663.89999999851
"131","3","unstructured","load","testing",NA,"stim08","circle","striped","kikiva","va",1,"likiki",0,3,0.5,0.5,NA,NA,NA,10300.0999999978
"132","3","unstructured","load","testing",NA,"stim09","circle","spotted","kikilu","lu",1,"pikilik",0,3,0.428571428571429,0.571428571428571,NA,NA,NA,11990.9000000022
"133","3","unstructured","load","testing",NA,"stim05","triangle","striped","lalapa","pa",1,"lolana",0,2,0.333333333333333,0.666666666666667,NA,NA,NA,7157.5
"134","3","unstructured","load","testing",NA,"stim07","circle","checkerboard","kikisu","su",1,"likiki",0,3,0.5,0.5,NA,NA,NA,4899
"135","3","unstructured","load","testing",NA,"stim06","triangle","spotted","lalani","ni",1,"tikitiki",0,7,0.875,0.125,NA,NA,NA,10123
"136","3","unstructured","load","testing",NA,"stim03","square","spotted","popori","ri",1,"pofana",0,4,0.666666666666667,0.333333333333333,NA,NA,NA,8658.20000000298
"137","3","unstructured","load","testing",NA,"stim01","square","checkerboard","popobi","bi",1,"lalani",0,5,0.833333333333333,0.166666666666667,NA,NA,NA,5367.60000000149
"138","4","structured","no load","testing",NA,"stim09","circle","spotted","lalafa","fa",0,"landini",0,5,0.714285714285714,0.285714285714286,NA,NA,NA,7657.40000003576
"139","4","structured","no load","testing",NA,"stim04","triangle","checkerboard","poponi","ni",0,"popondo",0,2,0.285714285714286,0.714285714285714,NA,NA,NA,4537.80000001192
"140","4","structured","no load","testing",NA,"stim05","triangle","striped","popodo","do",0,"popondo",0,1,0.142857142857143,0.857142857142857,NA,NA,NA,4582
"141","4","structured","no load","testing",NA,"stim08","circle","striped","lalado","do",0,"landini",0,5,0.714285714285714,0.285714285714286,NA,NA,NA,5993.80000001192
"142","4","structured","no load","testing",NA,"stim06","triangle","spotted","popofa","fa",0,"popondo",0,3,0.428571428571429,0.571428571428571,NA,NA,NA,5468.60000002384
"143","4","structured","no load","testing",NA,"stim02","square","striped","tutudo","do",0,"tutudo",1,0,0,1,NA,NA,NA,9177.80000001192
"144","4","structured","no load","testing",NA,"stim01","square","checkerboard","tutuni","ni",0,"tutuzz",0,2,0.333333333333333,0.666666666666667,NA,NA,NA,6356.69999998808
"145","4","structured","no load","testing",NA,"stim03","square","spotted","tutufa","fa",0,"tutuono",0,3,0.428571428571429,0.571428571428571,NA,NA,NA,7125.5
"146","4","structured","no load","testing",NA,"stim07","circle","checkerboard","lalani","ni",0,"landini",0,3,0.428571428571429,0.571428571428571,NA,NA,NA,4850.10000002384
"147","5","structured","no load","testing",NA,"stim09","circle","spotted","bebelu","lu",0,"bebelu",1,0,0,1,NA,NA,NA,6213.60000000894
"148","5","structured","no load","testing",NA,"stim02","square","striped","huhudo","do",0,"huhudo",1,0,0,1,NA,NA,NA,15049.599999994
"149","5","structured","no load","testing",NA,"stim06","triangle","spotted","kikilu","lu",0,"kikilu",1,0,0,1,NA,NA,NA,4537.90000000596
"150","5","structured","no load","testing",NA,"stim08","circle","striped","bebedo","do",0,"bebepa",0,2,0.333333333333333,0.666666666666667,NA,NA,NA,6306.09999999404
"151","5","structured","no load","testing",NA,"stim07","circle","checkerboard","bebepa","pa",0,"bebedo",0,2,0.333333333333333,0.666666666666667,NA,NA,NA,6779.09999999404
"152","5","structured","no load","testing",NA,"stim05","triangle","striped","kikido","do",0,"kikido",1,0,0,1,NA,NA,NA,7759.5
"153","5","structured","no load","testing",NA,"stim04","triangle","checkerboard","kikipa","pa",0,"kikipa",1,0,0,1,NA,NA,NA,4372.89999999106
"154","5","structured","no load","testing",NA,"stim03","square","spotted","huhulu","lu",0,"huhulu",1,0,0,1,NA,NA,NA,9995
"155","5","structured","no load","testing",NA,"stim01","square","checkerboard","huhupa","pa",0,"huhupa",1,0,0,1,NA,NA,NA,4388.09999999404
"156","6","partial","load","training","interference",NA,NA,NA,NA,NA,NA,NA,NA,NA,NA,NA,"825","825",3,6822
"157","6","partial","load","training","interference",NA,NA,NA,NA,NA,NA,NA,NA,NA,NA,NA,"493","493",3,6152
"158","6","partial","load","training","interference",NA,NA,NA,NA,NA,NA,NA,NA,NA,NA,NA,"964","964",3,9699
"159","6","partial","load","training","interference",NA,NA,NA,NA,NA,NA,NA,NA,NA,NA,NA,"720","720",3,4494
"160","6","partial","load","training","interference",NA,NA,NA,NA,NA,NA,NA,NA,NA,NA,NA,"530","530",3,6189
"161","6","partial","load","training","interference",NA,NA,NA,NA,NA,NA,NA,NA,NA,NA,NA,"574","574",3,6311.99999999997
"162","6","partial","load","training","interference",NA,NA,NA,NA,NA,NA,NA,NA,NA,NA,NA,"902","902",3,3884
"163","6","partial","load","training","interference",NA,NA,NA,NA,NA,NA,NA,NA,NA,NA,NA,"247","247",3,4496
"164","6","partial","load","training","interference",NA,NA,NA,NA,NA,NA,NA,NA,NA,NA,NA,"941","941",3,6686
"165","6","partial","load","training","interference",NA,NA,NA,NA,NA,NA,NA,NA,NA,NA,NA,"508","508",3,6840
"166","6","partial","load","training","interference",NA,NA,NA,NA,NA,NA,NA,NA,NA,NA,NA,"572","572",3,4465.00000000003
"167","6","partial","load","training","interference",NA,NA,NA,NA,NA,NA,NA,NA,NA,NA,NA,"152","572",1,5426
"168","6","partial","load","training","interference",NA,NA,NA,NA,NA,NA,NA,NA,NA,NA,NA,"497","497",3,5240.99999999997
"169","6","partial","load","training","interference",NA,NA,NA,NA,NA,NA,NA,NA,NA,NA,NA,"420","420",3,4164
"170","6","partial","load","training","interference",NA,NA,NA,NA,NA,NA,NA,NA,NA,NA,NA,"370","370",3,10759
"171","6","partial","load","training","interference",NA,NA,NA,NA,NA,NA,NA,NA,NA,NA,NA,"136","136",3,6252
"172","6","partial","load","training","interference",NA,NA,NA,NA,NA,NA,NA,NA,NA,NA,NA,"807","807",3,10346
"173","6","partial","load","training","interference",NA,NA,NA,NA,NA,NA,NA,NA,NA,NA,NA,"970","907",1,6159
"174","6","partial","load","training","interference",NA,NA,NA,NA,NA,NA,NA,NA,NA,NA,NA,"852","852",3,9349
"175","6","partial","load","training","interference",NA,NA,NA,NA,NA,NA,NA,NA,NA,NA,NA,"926","926",3,5636
"176","6","partial","load","training","interference",NA,NA,NA,NA,NA,NA,NA,NA,NA,NA,NA,"280","280",3,5199.00000000006
"177","6","partial","load","training","interference",NA,NA,NA,NA,NA,NA,NA,NA,NA,NA,NA,"702","702",3,9113.99999999994
"178","6","partial","load","training","interference",NA,NA,NA,NA,NA,NA,NA,NA,NA,NA,NA,"751","751",3,7901
"179","6","partial","load","training","interference",NA,NA,NA,NA,NA,NA,NA,NA,NA,NA,NA,"285","251",1,7136
"180","6","partial","load","training","interference",NA,NA,NA,NA,NA,NA,NA,NA,NA,NA,NA,"529","521",2,7871
"181","6","partial","load","training","interference",NA,NA,NA,NA,NA,NA,NA,NA,NA,NA,NA,"851","851",3,12988
"182","6","partial","load","training","interference",NA,NA,NA,NA,NA,NA,NA,NA,NA,NA,NA,"851","851",3,8164
"183","6","partial","load","training","interference",NA,NA,NA,NA,NA,NA,NA,NA,NA,NA,NA,"704","720",1,15020.9999999999
"184","6","partial","load","training","interference",NA,NA,NA,NA,NA,NA,NA,NA,NA,NA,NA,"059","529",1,8742
"185","6","partial","load","training","interference",NA,NA,NA,NA,NA,NA,NA,NA,NA,NA,NA,"805","805",3,3872.99999999988
"186","6","partial","load","training","interference",NA,NA,NA,NA,NA,NA,NA,NA,NA,NA,NA,"491","521",1,5754
"187","6","partial","load","training","interference",NA,NA,NA,NA,NA,NA,NA,NA,NA,NA,NA,"375","375",3,4323
"188","6","partial","load","training","interference",NA,NA,NA,NA,NA,NA,NA,NA,NA,NA,NA,"064","064",3,4399.99999999988
"189","6","partial","load","training","interference",NA,NA,NA,NA,NA,NA,NA,NA,NA,NA,NA,"461","461",3,3854.99999999988
"190","6","partial","load","training","interference",NA,NA,NA,NA,NA,NA,NA,NA,NA,NA,NA,"829","829",3,5138.00000000012
"191","6","partial","load","training","interference",NA,NA,NA,NA,NA,NA,NA,NA,NA,NA,NA,"537","537",3,7887
"192","6","partial","load","training","interference",NA,NA,NA,NA,NA,NA,NA,NA,NA,NA,NA,"352","352",3,4932
"193","6","partial","load","training","interference",NA,NA,NA,NA,NA,NA,NA,NA,NA,NA,NA,"914","914",3,4273
"194","6","partial","load","training","interference",NA,NA,NA,NA,NA,NA,NA,NA,NA,NA,NA,"753","753",3,4357
"195","6","partial","load","training","interference",NA,NA,NA,NA,NA,NA,NA,NA,NA,NA,NA,"691","691",3,3796.99999999988
"196","6","partial","load","training","interference",NA,NA,NA,NA,NA,NA,NA,NA,NA,NA,NA,"916","916",3,3883
"197","6","partial","load","training","interference",NA,NA,NA,NA,NA,NA,NA,NA,NA,NA,NA,"724","351",0,4617
"198","6","partial","load","training","interference",NA,NA,NA,NA,NA,NA,NA,NA,NA,NA,NA,"053","053",3,3905
"199","6","partial","load","training","interference",NA,NA,NA,NA,NA,NA,NA,NA,NA,NA,NA,"024","024",3,3756
"200","6","partial","load","training","interference",NA,NA,NA,NA,NA,NA,NA,NA,NA,NA,NA,"957","957",3,4669
"201","6","partial","load","training","interference",NA,NA,NA,NA,NA,NA,NA,NA,NA,NA,NA,"485","485",3,4725
"202","6","partial","load","training","interference",NA,NA,NA,NA,NA,NA,NA,NA,NA,NA,NA,"940","940",3,4742.99999999988
"203","6","partial","load","training","interference",NA,NA,NA,NA,NA,NA,NA,NA,NA,NA,NA,"172","172",3,4201
"204","6","partial","load","training","interference",NA,NA,NA,NA,NA,NA,NA,NA,NA,NA,NA,"817","817",3,3651
"205","6","partial","load","training","interference",NA,NA,NA,NA,NA,NA,NA,NA,NA,NA,NA,"702","702",3,3799
"206","6","partial","load","training","interference",NA,NA,NA,NA,NA,NA,NA,NA,NA,NA,NA,"180","180",3,5947
"207","6","partial","load","training","interference",NA,NA,NA,NA,NA,NA,NA,NA,NA,NA,NA,"428","428",3,3870
"208","6","partial","load","training","interference",NA,NA,NA,NA,NA,NA,NA,NA,NA,NA,NA,"915","915",3,3864
"209","6","partial","load","training","interference",NA,NA,NA,NA,NA,NA,NA,NA,NA,NA,NA,"041","041",3,3299
"210","6","partial","load","training","interference",NA,NA,NA,NA,NA,NA,NA,NA,NA,NA,NA,"864","864",3,3884
"211","6","partial","load","testing",NA,"stim07","circle","checkerboard","popopa","pa",1,"popopa",1,0,0,1,NA,NA,NA,28232
"212","6","partial","load","testing",NA,"stim06","triangle","spotted","momobi","bi",0,"momobi",1,0,0,1,NA,NA,NA,11198
"213","6","partial","load","testing",NA,"stim04","triangle","checkerboard","momoni","ni",0,"momoni",1,0,0,1,NA,NA,NA,9071
"214","6","partial","load","testing",NA,"stim01","square","checkerboard","tutuni","ni",0,"tutuni",1,0,0,1,NA,NA,NA,25781
"215","6","partial","load","testing",NA,"stim05","triangle","striped","momodo","do",0,"momoni",0,2,0.333333333333333,0.666666666666667,NA,NA,NA,18037.9999999999
"216","6","partial","load","testing",NA,"stim08","circle","striped","popodo","do",0,"popodo",1,0,0,1,NA,NA,NA,12733
"217","6","partial","load","testing",NA,"stim02","square","striped","tutudo","do",0,"tutdo",0,1,0.166666666666667,0.833333333333333,NA,NA,NA,14265
"218","6","partial","load","testing",NA,"stim03","square","spotted","tutufa","fa",1,"tutufa",1,0,0,1,NA,NA,NA,10896
"219","6","partial","load","testing",NA,"stim09","circle","spotted","popobi","bi",0,"popona",0,2,0.333333333333333,0.666666666666667,NA,NA,NA,14445
"220","7","unstructured","no load","testing",NA,"stim04","triangle","checkerboard","tutuva","va",1,"tutuva",1,0,0,1,NA,NA,NA,10663.8000000119
"221","7","unstructured","no load","testing",NA,"stim02","square","striped","bebesu","su",1,"bebosu",0,1,0.166666666666667,0.833333333333333,NA,NA,NA,8448
"222","7","unstructured","no load","testing",NA,"stim09","circle","spotted","lalari","ri",1,"lalafa",0,2,0.333333333333333,0.666666666666667,NA,NA,NA,7461.70000004768
"223","7","unstructured","no load","testing",NA,"stim08","circle","striped","lalafa","fa",1,"lalabo",0,2,0.333333333333333,0.666666666666667,NA,NA,NA,5453.30000001192
"224","7","unstructured","no load","testing",NA,"stim01","square","checkerboard","bebeni","ni",1,"bebepo",0,2,0.333333333333333,0.666666666666667,NA,NA,NA,14102.5
"225","7","unstructured","no load","testing",NA,"stim03","square","spotted","bebepa","pa",1,"bebano",0,3,0.5,0.5,NA,NA,NA,7838.80000001192
"226","7","unstructured","no load","testing",NA,"stim07","circle","checkerboard","lalado","do",1,"lalato",0,1,0.166666666666667,0.833333333333333,NA,NA,NA,9739.10000002384
"227","7","unstructured","no load","testing",NA,"stim05","triangle","striped","tutulu","lu",1,"tutula",0,1,0.166666666666667,0.833333333333333,NA,NA,NA,10598.6999999881
"228","7","unstructured","no load","testing",NA,"stim06","triangle","spotted","tutubi","bi",1,"tutaba",0,2,0.333333333333333,0.666666666666667,NA,NA,NA,6722.59999996424
"229","8","structured","load","training","interference",NA,NA,NA,NA,NA,NA,NA,NA,NA,NA,NA,"931","931",3,3663.12000000107
"230","8","structured","load","training","interference",NA,NA,NA,NA,NA,NA,NA,NA,NA,NA,NA,"539","539",3,3660.51499999958
"231","8","structured","load","training","interference",NA,NA,NA,NA,NA,NA,NA,NA,NA,NA,NA,"251","251",3,4434.51999999888
"232","8","structured","load","training","interference",NA,NA,NA,NA,NA,NA,NA,NA,NA,NA,NA,"314","414",2,3941.86999999874
"233","8","structured","load","training","interference",NA,NA,NA,NA,NA,NA,NA,NA,NA,NA,NA,"973","973",3,4417.48000000007
"234","8","structured","load","training","interference",NA,NA,NA,NA,NA,NA,NA,NA,NA,NA,NA,"382","382",3,2907.72999999899
"235","8","structured","load","training","interference",NA,NA,NA,NA,NA,NA,NA,NA,NA,NA,NA,"381","381",3,2867.71500000032
"236","8","structured","load","training","interference",NA,NA,NA,NA,NA,NA,NA,NA,NA,NA,NA,"816","361",0,3185.22500000108
"237","8","structured","load","training","interference",NA,NA,NA,NA,NA,NA,NA,NA,NA,NA,NA,"596","596",3,3657.16999999859
"238","8","structured","load","training","interference",NA,NA,NA,NA,NA,NA,NA,NA,NA,NA,NA,"250","250",3,2493.87500000012
"239","8","structured","load","training","interference",NA,NA,NA,NA,NA,NA,NA,NA,NA,NA,NA,"952","952",3,4631.17000000057
"240","8","structured","load","training","interference",NA,NA,NA,NA,NA,NA,NA,NA,NA,NA,NA,"604","654",2,2997.78000000151
"241","8","structured","load","training","interference",NA,NA,NA,NA,NA,NA,NA,NA,NA,NA,NA,"249","249",3,2638.90999999785
"242","8","structured","load","training","interference",NA,NA,NA,NA,NA,NA,NA,NA,NA,NA,NA,"058","058",3,4323.76999999906
"243","8","structured","load","training","interference",NA,NA,NA,NA,NA,NA,NA,NA,NA,NA,NA,"206","206",3,2752.66999999803
"244","8","structured","load","training","interference",NA,NA,NA,NA,NA,NA,NA,NA,NA,NA,NA,"958","958",3,4786.02500000125
"245","8","structured","load","training","interference",NA,NA,NA,NA,NA,NA,NA,NA,NA,NA,NA,"259","259",3,2738.89499999859
"246","8","structured","load","training","interference",NA,NA,NA,NA,NA,NA,NA,NA,NA,NA,NA,"275","275",3,2146.79000000254
"247","8","structured","load","training","interference",NA,NA,NA,NA,NA,NA,NA,NA,NA,NA,NA,"479","479",3,3641.83500000217
"248","8","structured","load","training","interference",NA,NA,NA,NA,NA,NA,NA,NA,NA,NA,NA,"264","264",3,3728.04499999981
"249","8","structured","load","training","interference",NA,NA,NA,NA,NA,NA,NA,NA,NA,NA,NA,"706","706",3,3286.93000000203
"250","8","structured","load","training","interference",NA,NA,NA,NA,NA,NA,NA,NA,NA,NA,NA,"480","480",3,2490.04500000225
"251","8","structured","load","training","interference",NA,NA,NA,NA,NA,NA,NA,NA,NA,NA,NA,"390","390",3,2386.62000000116
"252","8","structured","load","training","interference",NA,NA,NA,NA,NA,NA,NA,NA,NA,NA,NA,"720","720",3,2780.93000000081
"253","8","structured","load","training","interference",NA,NA,NA,NA,NA,NA,NA,NA,NA,NA,NA,"260","262",2,1825.10000000184
"254","8","structured","load","training","interference",NA,NA,NA,NA,NA,NA,NA,NA,NA,NA,NA,"079","079",3,2362.39500000008
"255","8","structured","load","training","interference",NA,NA,NA,NA,NA,NA,NA,NA,NA,NA,NA,"738","738",3,3823.36999999825
"256","8","structured","load","training","interference",NA,NA,NA,NA,NA,NA,NA,NA,NA,NA,NA,"024","024",3,3830.19499999867
"257","8","structured","load","training","interference",NA,NA,NA,NA,NA,NA,NA,NA,NA,NA,NA,"285","285",3,3510.98999999883
"258","8","structured","load","training","interference",NA,NA,NA,NA,NA,NA,NA,NA,NA,NA,NA,"937","937",3,4508.46000000089
"259","8","structured","load","training","interference",NA,NA,NA,NA,NA,NA,NA,NA,NA,NA,NA,"627","727",2,2552.96000000089
"260","8","structured","load","training","interference",NA,NA,NA,NA,NA,NA,NA,NA,NA,NA,NA,"137","137",3,2181.24499999976
"261","8","structured","load","training","interference",NA,NA,NA,NA,NA,NA,NA,NA,NA,NA,NA,"026","026",3,2901.96999999904
"262","8","structured","load","training","interference",NA,NA,NA,NA,NA,NA,NA,NA,NA,NA,NA,"627","628",2,1915.93499999726
"263","8","structured","load","training","interference",NA,NA,NA,NA,NA,NA,NA,NA,NA,NA,NA,"804","804",3,2541.00000000105
"264","8","structured","load","training","interference",NA,NA,NA,NA,NA,NA,NA,NA,NA,NA,NA,"270","270",3,4842.17499999795
"265","8","structured","load","training","interference",NA,NA,NA,NA,NA,NA,NA,NA,NA,NA,NA,"842","842",3,3975.82999999938
"266","8","structured","load","training","interference",NA,NA,NA,NA,NA,NA,NA,NA,NA,NA,NA,"406","406",3,2403.96999999939
"267","8","structured","load","training","interference",NA,NA,NA,NA,NA,NA,NA,NA,NA,NA,NA,"952","952",3,3173.60499999986
"268","8","structured","load","training","interference",NA,NA,NA,NA,NA,NA,NA,NA,NA,NA,NA,"962","962",3,2744.10999999964
"269","8","structured","load","training","interference",NA,NA,NA,NA,NA,NA,NA,NA,NA,NA,NA,"605","605",3,2303.4650000009
"270","8","structured","load","training","interference",NA,NA,NA,NA,NA,NA,NA,NA,NA,NA,NA,"802","802",3,2189.35000000056
"271","8","structured","load","training","interference",NA,NA,NA,NA,NA,NA,NA,NA,NA,NA,NA,"716","716",3,2615.6249999986
"272","8","structured","load","training","interference",NA,NA,NA,NA,NA,NA,NA,NA,NA,NA,NA,"203","203",3,2071.09000000125
"273","8","structured","load","training","interference",NA,NA,NA,NA,NA,NA,NA,NA,NA,NA,NA,"375","375",3,2613.41999999783
"274","8","structured","load","training","interference",NA,NA,NA,NA,NA,NA,NA,NA,NA,NA,NA,"086","086",3,3363.98499999999
"275","8","structured","load","training","interference",NA,NA,NA,NA,NA,NA,NA,NA,NA,NA,NA,"738","738",3,2966.95999999787
"276","8","structured","load","training","interference",NA,NA,NA,NA,NA,NA,NA,NA,NA,NA,NA,"240","240",3,2137.19499999937
"277","8","structured","load","training","interference",NA,NA,NA,NA,NA,NA,NA,NA,NA,NA,NA,"392","392",3,2060.04000000039
"278","8","structured","load","training","interference",NA,NA,NA,NA,NA,NA,NA,NA,NA,NA,NA,"638","638",3,3027.74000000139
"279","8","structured","load","training","interference",NA,NA,NA,NA,NA,NA,NA,NA,NA,NA,NA,"573","573",3,2756.14000000129
"280","8","structured","load","training","interference",NA,NA,NA,NA,NA,NA,NA,NA,NA,NA,NA,"286","276",2,2287.44000000018
"281","8","structured","load","training","interference",NA,NA,NA,NA,NA,NA,NA,NA,NA,NA,NA,"902","902",3,2012.52999999991
"282","8","structured","load","training","interference",NA,NA,NA,NA,NA,NA,NA,NA,NA,NA,NA,"906","906",3,2869.54999999935
"283","8","structured","load","training","interference",NA,NA,NA,NA,NA,NA,NA,NA,NA,NA,NA,"603","603",3,3625.70000000054
"284","8","structured","load","testing",NA,"stim09","circle","spotted","nenesu","su",0,"nenesu",1,0,0,1,NA,NA,NA,7035.45500000101
"285","8","structured","load","testing",NA,"stim07","circle","checkerboard","nenepa","pa",0,"nenepa",1,0,0,1,NA,NA,NA,8715.58000000007
"286","8","structured","load","testing",NA,"stim05","triangle","striped","kikibi","bi",0,"kikibi",1,0,0,1,NA,NA,NA,4646.98999999743
"287","8","structured","load","testing",NA,"stim08","circle","striped","nenebi","bi",0,"nenebi",1,0,0,1,NA,NA,NA,4487.17500000203
"288","8","structured","load","testing",NA,"stim04","triangle","checkerboard","kikipa","pa",0,"kikipa",1,0,0,1,NA,NA,NA,3248.62500000012
"289","8","structured","load","testing",NA,"stim01","square","checkerboard","momopa","pa",0,"momopa",1,0,0,1,NA,NA,NA,3237.04000000004
"290","8","structured","load","testing",NA,"stim02","square","striped","momobi","bi",0,"momobi",1,0,0,1,NA,NA,NA,2826.90500000177
"291","8","structured","load","testing",NA,"stim03","square","spotted","momosu","su",0,"momosu",1,0,0,1,NA,NA,NA,5715.03500000108
"292","8","structured","load","testing",NA,"stim06","triangle","spotted","kikisu","su",0,"kikisu",1,0,0,1,NA,NA,NA,3743.05000000098
"293","9","structured","load","training","interference",NA,NA,NA,NA,NA,NA,NA,NA,NA,NA,NA,"519","519",3,13588.9000000004
"294","9","structured","load","training","interference",NA,NA,NA,NA,NA,NA,NA,NA,NA,NA,NA,"395","395",3,6310.30000000075
"295","9","structured","load","training","interference",NA,NA,NA,NA,NA,NA,NA,NA,NA,NA,NA,"146","146",3,2831.69999999925
"296","9","structured","load","training","interference",NA,NA,NA,NA,NA,NA,NA,NA,NA,NA,NA,"837","837",3,9707.5
"297","9","structured","load","training","interference",NA,NA,NA,NA,NA,NA,NA,NA,NA,NA,NA,"718","718",3,3091
"298","9","structured","load","training","interference",NA,NA,NA,NA,NA,NA,NA,NA,NA,NA,NA,"829","829",3,3641.69999999925
"299","9","structured","load","training","interference",NA,NA,NA,NA,NA,NA,NA,NA,NA,NA,NA,"706","706",3,3969.80000000075
"300","9","structured","load","training","interference",NA,NA,NA,NA,NA,NA,NA,NA,NA,NA,NA,"725","725",3,6446.39999999851
"301","9","structured","load","training","interference",NA,NA,NA,NA,NA,NA,NA,NA,NA,NA,NA,"460","460",3,6169.89999999851
"302","9","structured","load","training","interference",NA,NA,NA,NA,NA,NA,NA,NA,NA,NA,NA,"724","724",3,2764.69999999925
"303","9","structured","load","training","interference",NA,NA,NA,NA,NA,NA,NA,NA,NA,NA,NA,"946","946",3,6442.90000000037
"304","9","structured","load","training","interference",NA,NA,NA,NA,NA,NA,NA,NA,NA,NA,NA,"951","951",3,2894.40000000037
"305","9","structured","load","training","interference",NA,NA,NA,NA,NA,NA,NA,NA,NA,NA,NA,"964","965",2,4350.09999999963
"306","9","structured","load","training","interference",NA,NA,NA,NA,NA,NA,NA,NA,NA,NA,NA,"290","290",3,2509.59999999963
"307","9","structured","load","training","interference",NA,NA,NA,NA,NA,NA,NA,NA,NA,NA,NA,"285","285",3,1281.69999999925
"308","9","structured","load","training","interference",NA,NA,NA,NA,NA,NA,NA,NA,NA,NA,NA,"169","169",3,1474.80000000075
"309","9","structured","load","training","interference",NA,NA,NA,NA,NA,NA,NA,NA,NA,NA,NA,"925","925",3,6013.70000000112
"310","9","structured","load","training","interference",NA,NA,NA,NA,NA,NA,NA,NA,NA,NA,NA,"375","375",3,3935.69999999925
"311","9","structured","load","training","interference",NA,NA,NA,NA,NA,NA,NA,NA,NA,NA,NA,"361","361",3,2375.5
"312","9","structured","load","training","interference",NA,NA,NA,NA,NA,NA,NA,NA,NA,NA,NA,"157","157",3,3695.29999999888
"313","9","structured","load","training","interference",NA,NA,NA,NA,NA,NA,NA,NA,NA,NA,NA,"852","297",0,7420.29999999888
"314","9","structured","load","training","interference",NA,NA,NA,NA,NA,NA,NA,NA,NA,NA,NA,"417","417",3,2609.20000000112
"315","9","structured","load","training","interference",NA,NA,NA,NA,NA,NA,NA,NA,NA,NA,NA,"846","846",3,2660.20000000112
"316","9","structured","load","training","interference",NA,NA,NA,NA,NA,NA,NA,NA,NA,NA,NA,"753","753",3,1236.79999999888
"317","9","structured","load","training","interference",NA,NA,NA,NA,NA,NA,NA,NA,NA,NA,NA,"536","536",3,1105.90000000037
"318","9","structured","load","training","interference",NA,NA,NA,NA,NA,NA,NA,NA,NA,NA,NA,"371","371",3,1381.20000000112
"319","9","structured","load","training","interference",NA,NA,NA,NA,NA,NA,NA,NA,NA,NA,NA,"816","816",3,1262.30000000075
"320","9","structured","load","training","interference",NA,NA,NA,NA,NA,NA,NA,NA,NA,NA,NA,"259","25",2,3401.59999999963
"321","9","structured","load","training","interference",NA,NA,NA,NA,NA,NA,NA,NA,NA,NA,NA,"472","292",1,4845.10000000149
"322","9","structured","load","training","interference",NA,NA,NA,NA,NA,NA,NA,NA,NA,NA,NA,"035","035",3,2353.30000000075
"323","9","structured","load","training","interference",NA,NA,NA,NA,NA,NA,NA,NA,NA,NA,NA,"805","805",3,3193.5
"324","9","structured","load","training","interference",NA,NA,NA,NA,NA,NA,NA,NA,NA,NA,NA,"624","624",3,1927.69999999925
"325","9","structured","load","training","interference",NA,NA,NA,NA,NA,NA,NA,NA,NA,NA,NA,"928","928",3,1520.5
"326","9","structured","load","training","interference",NA,NA,NA,NA,NA,NA,NA,NA,NA,NA,NA,"196","196",3,1657.39999999851
"327","9","structured","load","training","interference",NA,NA,NA,NA,NA,NA,NA,NA,NA,NA,NA,"813","813",3,3231.5
"328","9","structured","load","training","interference",NA,NA,NA,NA,NA,NA,NA,NA,NA,NA,NA,"092","092",3,1588.70000000112
"329","9","structured","load","training","interference",NA,NA,NA,NA,NA,NA,NA,NA,NA,NA,NA,"863","863",3,1311.70000000112
"330","9","structured","load","training","interference",NA,NA,NA,NA,NA,NA,NA,NA,NA,NA,NA,"470","470",3,2543.20000000112
"331","9","structured","load","training","interference",NA,NA,NA,NA,NA,NA,NA,NA,NA,NA,NA,"913","470",0,2610.20000000112
"332","9","structured","load","training","interference",NA,NA,NA,NA,NA,NA,NA,NA,NA,NA,NA,"863","863",3,3306.30000000075
"333","9","structured","load","training","interference",NA,NA,NA,NA,NA,NA,NA,NA,NA,NA,NA,"613","613",3,2011.59999999963
"334","9","structured","load","training","interference",NA,NA,NA,NA,NA,NA,NA,NA,NA,NA,NA,"197","197",3,2628.20000000112
"335","9","structured","load","training","interference",NA,NA,NA,NA,NA,NA,NA,NA,NA,NA,NA,"049","045",2,2252
"336","9","structured","load","training","interference",NA,NA,NA,NA,NA,NA,NA,NA,NA,NA,NA,"047","047",3,1891.5
"337","9","structured","load","training","interference",NA,NA,NA,NA,NA,NA,NA,NA,NA,NA,NA,"281","281",3,3435.5
"338","9","structured","load","training","interference",NA,NA,NA,NA,NA,NA,NA,NA,NA,NA,NA,"147","147",3,1460.29999999888
"339","9","structured","load","training","interference",NA,NA,NA,NA,NA,NA,NA,NA,NA,NA,NA,"750","750",3,2056.80000000075
"340","9","structured","load","training","interference",NA,NA,NA,NA,NA,NA,NA,NA,NA,NA,NA,"269","269",3,1726.30000000075
"341","9","structured","load","training","interference",NA,NA,NA,NA,NA,NA,NA,NA,NA,NA,NA,"507","507",3,1309.10000000149
"342","9","structured","load","training","interference",NA,NA,NA,NA,NA,NA,NA,NA,NA,NA,NA,"140","140",3,3015.09999999963
"343","9","structured","load","training","interference",NA,NA,NA,NA,NA,NA,NA,NA,NA,NA,NA,"806","806",3,2051.69999999925
"344","9","structured","load","training","interference",NA,NA,NA,NA,NA,NA,NA,NA,NA,NA,NA,"208","208",3,3935.29999999888
"345","9","structured","load","training","interference",NA,NA,NA,NA,NA,NA,NA,NA,NA,NA,NA,"386","386",3,2346
"346","9","structured","load","training","interference",NA,NA,NA,NA,NA,NA,NA,NA,NA,NA,NA,"957","957",3,1807.29999999888
"347","9","structured","load","training","interference",NA,NA,NA,NA,NA,NA,NA,NA,NA,NA,NA,"607","607",3,2159.09999999963
"348","9","structured","load","testing",NA,"stim06","triangle","spotted","bebeni","ni",0,"bebeni",1,0,0,1,NA,NA,NA,13965
"349","9","structured","load","testing",NA,"stim03","square","spotted","neneni","ni",0,"neneni",1,0,0,1,NA,NA,NA,10808.5999999996
"350","9","structured","load","testing",NA,"stim09","circle","spotted","tutuni","ni",0,"tutuni",1,0,0,1,NA,NA,NA,8936.79999999888
"351","9","structured","load","testing",NA,"stim04","triangle","checkerboard","bebepa","pa",0,"bebepa",1,0,0,1,NA,NA,NA,5635.5
"352","9","structured","load","testing",NA,"stim07","circle","checkerboard","tutupa","pa",0,"tutupa",1,0,0,1,NA,NA,NA,5802.90000000037
"353","9","structured","load","testing",NA,"stim01","square","checkerboard","nenepa","pa",0,"nenepa",1,0,0,1,NA,NA,NA,9017.79999999888
"354","9","structured","load","testing",NA,"stim02","square","striped","nenesu","su",0,"nenesu",1,0,0,1,NA,NA,NA,9771.10000000149
"355","9","structured","load","testing",NA,"stim05","triangle","striped","bebesu","su",0,"bebesu",1,0,0,1,NA,NA,NA,8813.69999999925
"356","9","structured","load","testing",NA,"stim08","circle","striped","tutusu","su",0,"tutusu",1,0,0,1,NA,NA,NA,7534.69999999925
"357","10","structured","load","training","interference",NA,NA,NA,NA,NA,NA,NA,NA,NA,NA,NA,"728","728",3,6886
"358","10","structured","load","training","interference",NA,NA,NA,NA,NA,NA,NA,NA,NA,NA,NA,"506","506",3,8219.30000000005
"359","10","structured","load","training","interference",NA,NA,NA,NA,NA,NA,NA,NA,NA,NA,NA,"748","748",3,3204.90000000014
"360","10","structured","load","training","interference",NA,NA,NA,NA,NA,NA,NA,NA,NA,NA,NA,"426","426",3,3490.90000000014
"361","10","structured","load","training","interference",NA,NA,NA,NA,NA,NA,NA,NA,NA,NA,NA,"751","745",1,2713.30000000005
"362","10","structured","load","training","interference",NA,NA,NA,NA,NA,NA,NA,NA,NA,NA,NA,"350","724",0,5295.79999999981
"363","10","structured","load","training","interference",NA,NA,NA,NA,NA,NA,NA,NA,NA,NA,NA,"519","529",2,2758.59999999986
"364","10","structured","load","training","interference",NA,NA,NA,NA,NA,NA,NA,NA,NA,NA,NA,"937","937",3,3296.60000000009
"365","10","structured","load","training","interference",NA,NA,NA,NA,NA,NA,NA,NA,NA,NA,NA,"308","308",3,3763.5
"366","10","structured","load","training","interference",NA,NA,NA,NA,NA,NA,NA,NA,NA,NA,NA,"361","361",3,3281.89999999991
"367","10","structured","load","training","interference",NA,NA,NA,NA,NA,NA,NA,NA,NA,NA,NA,"903","903",3,4811.20000000019
"368","10","structured","load","training","interference",NA,NA,NA,NA,NA,NA,NA,NA,NA,NA,NA,"302","302",3,3468.19999999995
"369","10","structured","load","training","interference",NA,NA,NA,NA,NA,NA,NA,NA,NA,NA,NA,"615","615",3,3798.70000000019
"370","10","structured","load","training","interference",NA,NA,NA,NA,NA,NA,NA,NA,NA,NA,NA,"791","651",1,2755.39999999991
"371","10","structured","load","training","interference",NA,NA,NA,NA,NA,NA,NA,NA,NA,NA,NA,"207","627",1,3112.40000000014
"372","10","structured","load","training","interference",NA,NA,NA,NA,NA,NA,NA,NA,NA,NA,NA,"580","580",3,2834.39999999991
"373","10","structured","load","training","interference",NA,NA,NA,NA,NA,NA,NA,NA,NA,NA,NA,"172","523",0,5347
"374","10","structured","load","training","interference",NA,NA,NA,NA,NA,NA,NA,NA,NA,NA,NA,"297","297",3,3579.90000000014
"375","10","structured","load","training","interference",NA,NA,NA,NA,NA,NA,NA,NA,NA,NA,NA,"052","052",3,4844.89999999991
"376","10","structured","load","training","interference",NA,NA,NA,NA,NA,NA,NA,NA,NA,NA,NA,"592","592",3,3447.5
"377","10","structured","load","training","interference",NA,NA,NA,NA,NA,NA,NA,NA,NA,NA,NA,"419","429",2,4528.5
"378","10","structured","load","training","interference",NA,NA,NA,NA,NA,NA,NA,NA,NA,NA,NA,"902","902",3,4892.30000000028
"379","10","structured","load","training","interference",NA,NA,NA,NA,NA,NA,NA,NA,NA,NA,NA,"253","253",3,5616.30000000028
"380","10","structured","load","training","interference",NA,NA,NA,NA,NA,NA,NA,NA,NA,NA,NA,"593","593",3,4611.60000000009
"381","10","structured","load","training","interference",NA,NA,NA,NA,NA,NA,NA,NA,NA,NA,NA,"317","627",1,6102.89999999991
"382","10","structured","load","training","interference",NA,NA,NA,NA,NA,NA,NA,NA,NA,NA,NA,"492","627",0,5064.89999999991
"383","10","structured","load","training","interference",NA,NA,NA,NA,NA,NA,NA,NA,NA,NA,NA,"968","960",2,4438.5
"384","10","structured","load","training","interference",NA,NA,NA,NA,NA,NA,NA,NA,NA,NA,NA,"062","062",3,5702.79999999981
"385","10","structured","load","training","interference",NA,NA,NA,NA,NA,NA,NA,NA,NA,NA,NA,"170","170",3,4259.39999999991
"386","10","structured","load","training","interference",NA,NA,NA,NA,NA,NA,NA,NA,NA,NA,NA,"752","752",3,4161.5
"387","10","structured","load","training","interference",NA,NA,NA,NA,NA,NA,NA,NA,NA,NA,NA,"251","251",3,5585.20000000019
"388","10","structured","load","training","interference",NA,NA,NA,NA,NA,NA,NA,NA,NA,NA,NA,"709","709",3,3278.5
"389","10","structured","load","training","interference",NA,NA,NA,NA,NA,NA,NA,NA,NA,NA,NA,"152","152",3,3613
"390","10","structured","load","training","interference",NA,NA,NA,NA,NA,NA,NA,NA,NA,NA,NA,"583","583",3,3285.30000000028
"391","10","structured","load","training","interference",NA,NA,NA,NA,NA,NA,NA,NA,NA,NA,NA,"718","752",1,2991.10000000009
"392","10","structured","load","training","interference",NA,NA,NA,NA,NA,NA,NA,NA,NA,NA,NA,"384","384",3,2868.60000000009
"393","10","structured","load","training","interference",NA,NA,NA,NA,NA,NA,NA,NA,NA,NA,NA,"502","582",2,2551.70000000019
"394","10","structured","load","training","interference",NA,NA,NA,NA,NA,NA,NA,NA,NA,NA,NA,"136","156",2,5532.60000000009
"395","10","structured","load","training","interference",NA,NA,NA,NA,NA,NA,NA,NA,NA,NA,NA,"157","157",3,4604.59999999963
"396","10","structured","load","training","interference",NA,NA,NA,NA,NA,NA,NA,NA,NA,NA,NA,"526","526",3,5380.80000000028
"397","10","structured","load","training","interference",NA,NA,NA,NA,NA,NA,NA,NA,NA,NA,NA,"926","526",2,3611.79999999981
"398","10","structured","load","training","interference",NA,NA,NA,NA,NA,NA,NA,NA,NA,NA,NA,"824","824",3,6426.59999999963
"399","10","structured","load","training","interference",NA,NA,NA,NA,NA,NA,NA,NA,NA,NA,NA,"274","274",3,3665.29999999981
"400","10","structured","load","training","interference",NA,NA,NA,NA,NA,NA,NA,NA,NA,NA,NA,"817","125",0,5436.19999999972
"401","10","structured","load","training","interference",NA,NA,NA,NA,NA,NA,NA,NA,NA,NA,NA,"168","168",3,3318
"402","10","structured","load","training","interference",NA,NA,NA,NA,NA,NA,NA,NA,NA,NA,NA,"627","627",3,2743.79999999981
"403","10","structured","load","training","interference",NA,NA,NA,NA,NA,NA,NA,NA,NA,NA,NA,"463","467",2,4534.89999999991
"404","10","structured","load","training","interference",NA,NA,NA,NA,NA,NA,NA,NA,NA,NA,NA,"058","058",3,3804.60000000009
"405","10","structured","load","training","interference",NA,NA,NA,NA,NA,NA,NA,NA,NA,NA,NA,"908","908",3,3855.20000000019
"406","10","structured","load","training","interference",NA,NA,NA,NA,NA,NA,NA,NA,NA,NA,NA,"586","586",3,3098.19999999972
"407","10","structured","load","training","interference",NA,NA,NA,NA,NA,NA,NA,NA,NA,NA,NA,"205","205",3,3880.80000000028
"408","10","structured","load","training","interference",NA,NA,NA,NA,NA,NA,NA,NA,NA,NA,NA,"628","628",3,2927.89999999991
"409","10","structured","load","training","interference",NA,NA,NA,NA,NA,NA,NA,NA,NA,NA,NA,"148","148",3,3542.39999999991
"410","10","structured","load","training","interference",NA,NA,NA,NA,NA,NA,NA,NA,NA,NA,NA,"580","058",0,3194.5
"411","10","structured","load","training","interference",NA,NA,NA,NA,NA,NA,NA,NA,NA,NA,NA,"837","837",3,3114.10000000009
"412","10","structured","load","testing",NA,"stim02","square","striped","momori","ri",0,"momri",0,1,0.166666666666667,0.833333333333333,NA,NA,NA,18255.5
"413","10","structured","load","testing",NA,"stim07","circle","checkerboard","tutupa","pa",0,"tutpe",0,2,0.333333333333333,0.666666666666667,NA,NA,NA,12620.2000000002
"414","10","structured","load","testing",NA,"stim06","triangle","spotted","bebesu","su",0,"bebesu",1,0,0,1,NA,NA,NA,10055.6000000001
"415","10","structured","load","testing",NA,"stim09","circle","spotted","tutusu","su",0,"tutsu",0,1,0.166666666666667,0.833333333333333,NA,NA,NA,9201
"416","10","structured","load","testing",NA,"stim04","triangle","checkerboard","bebepa","pa",0,"bebepe",0,1,0.166666666666667,0.833333333333333,NA,NA,NA,25630.2000000002
"417","10","structured","load","testing",NA,"stim08","circle","striped","tuturi","ri",0,"tuturi",1,0,0,1,NA,NA,NA,38544.5
"418","10","structured","load","testing",NA,"stim05","triangle","striped","beberi","ri",0,"beberi",1,0,0,1,NA,NA,NA,10388.6000000001
"419","10","structured","load","testing",NA,"stim03","square","spotted","momosu","su",0,"momsu",0,1,0.166666666666667,0.833333333333333,NA,NA,NA,11815.1000000001
"420","10","structured","load","testing",NA,"stim01","square","checkerboard","momopa","pa",0,"mompe",0,2,0.333333333333333,0.666666666666667,NA,NA,NA,25818.7000000002
"421","11","unstructured","load","training","interference",NA,NA,NA,NA,NA,NA,NA,NA,NA,NA,NA,"583","583",3,5745.89999999106
"422","11","unstructured","load","training","interference",NA,NA,NA,NA,NA,NA,NA,NA,NA,NA,NA,"406","406",3,4983.79999999702
"423","11","unstructured","load","training","interference",NA,NA,NA,NA,NA,NA,NA,NA,NA,NA,NA,"860","406",0,7518.10000000894
"424","11","unstructured","load","training","interference",NA,NA,NA,NA,NA,NA,NA,NA,NA,NA,NA,"413","413",3,4440.5
"425","11","unstructured","load","training","interference",NA,NA,NA,NA,NA,NA,NA,NA,NA,NA,NA,"317","317",3,6686.89999999106
"426","11","unstructured","load","training","interference",NA,NA,NA,NA,NA,NA,NA,NA,NA,NA,NA,"208","218",2,5029
"427","11","unstructured","load","training","interference",NA,NA,NA,NA,NA,NA,NA,NA,NA,NA,NA,"195","195",3,4187.5
"428","11","unstructured","load","training","interference",NA,NA,NA,NA,NA,NA,NA,NA,NA,NA,NA,"053","053",3,4158.59999999404
"429","11","unstructured","load","training","interference",NA,NA,NA,NA,NA,NA,NA,NA,NA,NA,NA,"739","739",3,4783.20000000298
"430","11","unstructured","load","training","interference",NA,NA,NA,NA,NA,NA,NA,NA,NA,NA,NA,"702","702",3,3823.09999999404
"431","11","unstructured","load","training","interference",NA,NA,NA,NA,NA,NA,NA,NA,NA,NA,NA,"294","294",3,4330
"432","11","unstructured","load","training","interference",NA,NA,NA,NA,NA,NA,NA,NA,NA,NA,NA,"280","284",2,4410.70000000298
"433","11","unstructured","load","training","interference",NA,NA,NA,NA,NA,NA,NA,NA,NA,NA,NA,"852","852",3,4256.19999998808
"434","11","unstructured","load","training","interference",NA,NA,NA,NA,NA,NA,NA,NA,NA,NA,NA,"927","927",3,4365.29999999702
"435","11","unstructured","load","training","interference",NA,NA,NA,NA,NA,NA,NA,NA,NA,NA,NA,"316","316",3,5116.10000000894
"436","11","unstructured","load","training","interference",NA,NA,NA,NA,NA,NA,NA,NA,NA,NA,NA,"058","058",3,4834.70000000298
"437","11","unstructured","load","training","interference",NA,NA,NA,NA,NA,NA,NA,NA,NA,NA,NA,"403","453",2,4494.90000000596
"438","11","unstructured","load","training","interference",NA,NA,NA,NA,NA,NA,NA,NA,NA,NA,NA,"917","917",3,4173
"439","11","unstructured","load","training","interference",NA,NA,NA,NA,NA,NA,NA,NA,NA,NA,NA,"918","918",3,4086
"440","11","unstructured","load","training","interference",NA,NA,NA,NA,NA,NA,NA,NA,NA,NA,NA,"706","706",3,5115.09999999404
"441","11","unstructured","load","training","interference",NA,NA,NA,NA,NA,NA,NA,NA,NA,NA,NA,"150","150",3,4345.20000000298
"442","11","unstructured","load","training","interference",NA,NA,NA,NA,NA,NA,NA,NA,NA,NA,NA,"251","251",3,4747.79999999702
"443","11","unstructured","load","training","interference",NA,NA,NA,NA,NA,NA,NA,NA,NA,NA,NA,"642","642",3,4703.59999999404
"444","11","unstructured","load","training","interference",NA,NA,NA,NA,NA,NA,NA,NA,NA,NA,NA,"468","468",3,8187.5
"445","11","unstructured","load","training","interference",NA,NA,NA,NA,NA,NA,NA,NA,NA,NA,NA,"368","368",3,5373.90000000596
"446","11","unstructured","load","training","interference",NA,NA,NA,NA,NA,NA,NA,NA,NA,NA,NA,"819","819",3,4306.5
"447","11","unstructured","load","training","interference",NA,NA,NA,NA,NA,NA,NA,NA,NA,NA,NA,"631","631",3,4294.39999999106
"448","11","unstructured","load","training","interference",NA,NA,NA,NA,NA,NA,NA,NA,NA,NA,NA,"482","482",3,5038.39999999106
"449","11","unstructured","load","training","interference",NA,NA,NA,NA,NA,NA,NA,NA,NA,NA,NA,"940","940",3,4951
"450","11","unstructured","load","training","interference",NA,NA,NA,NA,NA,NA,NA,NA,NA,NA,NA,"951","951",3,4421.89999999106
"451","11","unstructured","load","training","interference",NA,NA,NA,NA,NA,NA,NA,NA,NA,NA,NA,"759","759",3,4453.80000001192
"452","11","unstructured","load","training","interference",NA,NA,NA,NA,NA,NA,NA,NA,NA,NA,NA,"483","483",3,5204.10000000894
"453","11","unstructured","load","training","interference",NA,NA,NA,NA,NA,NA,NA,NA,NA,NA,NA,"862","862",3,6141.79999999702
"454","11","unstructured","load","training","interference",NA,NA,NA,NA,NA,NA,NA,NA,NA,NA,NA,"380","380",3,5737.89999999106
"455","11","unstructured","load","training","interference",NA,NA,NA,NA,NA,NA,NA,NA,NA,NA,NA,"170","170",3,4578.79999999702
"456","11","unstructured","load","training","interference",NA,NA,NA,NA,NA,NA,NA,NA,NA,NA,NA,"283","283",3,6166.29999999702
"457","11","unstructured","load","training","interference",NA,NA,NA,NA,NA,NA,NA,NA,NA,NA,NA,"904","406",1,6644.70000000298
"458","11","unstructured","load","training","interference",NA,NA,NA,NA,NA,NA,NA,NA,NA,NA,NA,"620","620",3,4387.89999999106
"459","11","unstructured","load","training","interference",NA,NA,NA,NA,NA,NA,NA,NA,NA,NA,NA,"271","271",3,5190.29999999702
"460","11","unstructured","load","training","interference",NA,NA,NA,NA,NA,NA,NA,NA,NA,NA,NA,"485","485",3,6817.70000000298
"461","11","unstructured","load","training","interference",NA,NA,NA,NA,NA,NA,NA,NA,NA,NA,NA,"429","429",3,5500.29999999702
"462","11","unstructured","load","training","interference",NA,NA,NA,NA,NA,NA,NA,NA,NA,NA,NA,"359","359",3,5665.89999999106
"463","11","unstructured","load","training","interference",NA,NA,NA,NA,NA,NA,NA,NA,NA,NA,NA,"138","138",3,5113.5
"464","11","unstructured","load","training","interference",NA,NA,NA,NA,NA,NA,NA,NA,NA,NA,NA,"602","602",3,4952.90000000596
"465","11","unstructured","load","training","interference",NA,NA,NA,NA,NA,NA,NA,NA,NA,NA,NA,"479","279",2,4675.10000000894
"466","11","unstructured","load","training","interference",NA,NA,NA,NA,NA,NA,NA,NA,NA,NA,NA,"704","789",1,5501.09999999404
"467","11","unstructured","load","training","interference",NA,NA,NA,NA,NA,NA,NA,NA,NA,NA,NA,"840","840",3,4810.10000000894
"468","11","unstructured","load","training","interference",NA,NA,NA,NA,NA,NA,NA,NA,NA,NA,NA,"053","583",1,4716.5
"469","11","unstructured","load","training","interference",NA,NA,NA,NA,NA,NA,NA,NA,NA,NA,NA,"503","503",3,5068.90000000596
"470","11","unstructured","load","training","interference",NA,NA,NA,NA,NA,NA,NA,NA,NA,NA,NA,"381","381",3,5554.40000000596
"471","11","unstructured","load","training","interference",NA,NA,NA,NA,NA,NA,NA,NA,NA,NA,NA,"791","791",3,5023.90000000596
"472","11","unstructured","load","training","interference",NA,NA,NA,NA,NA,NA,NA,NA,NA,NA,NA,"517","581",1,5395.90000000596
"473","11","unstructured","load","training","interference",NA,NA,NA,NA,NA,NA,NA,NA,NA,NA,NA,"627","627",3,5934.90000000596
"474","11","unstructured","load","training","interference",NA,NA,NA,NA,NA,NA,NA,NA,NA,NA,NA,"947","947",3,5934.5
"475","11","unstructured","load","training","interference",NA,NA,NA,NA,NA,NA,NA,NA,NA,NA,NA,"203","947",0,5911.20000000298
"476","11","unstructured","load","testing",NA,"stim01","square","checkerboard","gagado","do",1,"gapaga",0,3,0.5,0.5,NA,NA,NA,5706.79999999702
"477","11","unstructured","load","testing",NA,"stim04","triangle","checkerboard","tutusu","su",1,"totulu",0,2,0.333333333333333,0.666666666666667,NA,NA,NA,6281.5
"478","11","unstructured","load","testing",NA,"stim06","triangle","spotted","tuturi","ri",1,"gapchi",0,5,0.833333333333333,0.166666666666667,NA,NA,NA,6873.89999999106
"479","11","unstructured","load","testing",NA,"stim03","square","spotted","gagapa","pa",1,"totulio",0,7,1,0,NA,NA,NA,12403.200000003
"480","11","unstructured","load","testing",NA,"stim09","circle","spotted","momofa","fa",1,"gapaga",0,5,0.833333333333333,0.166666666666667,NA,NA,NA,5161.70000000298
"481","11","unstructured","load","testing",NA,"stim05","triangle","striped","tutulu","lu",1,"totulu",0,1,0.166666666666667,0.833333333333333,NA,NA,NA,5117.79999999702
"482","11","unstructured","load","testing",NA,"stim02","square","striped","gagabi","bi",1,"momolo",0,6,1,0,NA,NA,NA,8063.40000000596
"483","11","unstructured","load","testing",NA,"stim08","circle","striped","momoni","ni",1,"totulu",0,5,0.833333333333333,0.166666666666667,NA,NA,NA,5686.5
"484","11","unstructured","load","testing",NA,"stim07","circle","checkerboard","momova","va",1,"momolo",0,2,0.333333333333333,0.666666666666667,NA,NA,NA,4220.70000000298
"485","12","structured","load","training","interference",NA,NA,NA,NA,NA,NA,NA,NA,NA,NA,NA,"248","248",3,5107.79999999702
"486","12","structured","load","training","interference",NA,NA,NA,NA,NA,NA,NA,NA,NA,NA,NA,"358","358",3,8084.20000000298
"487","12","structured","load","training","interference",NA,NA,NA,NA,NA,NA,NA,NA,NA,NA,NA,"293","293",3,3886
"488","12","structured","load","training","interference",NA,NA,NA,NA,NA,NA,NA,NA,NA,NA,NA,"968","968",3,5020.29999999702
"489","12","structured","load","training","interference",NA,NA,NA,NA,NA,NA,NA,NA,NA,NA,NA,"138","138",3,4909.29999999702
"490","12","structured","load","training","interference",NA,NA,NA,NA,NA,NA,NA,NA,NA,NA,NA,"618","618",3,4220.29999999702
"491","12","structured","load","training","interference",NA,NA,NA,NA,NA,NA,NA,NA,NA,NA,NA,"846","846",3,4459.59999999404
"492","12","structured","load","training","interference",NA,NA,NA,NA,NA,NA,NA,NA,NA,NA,NA,"137","137",3,5825.89999999106
"493","12","structured","load","training","interference",NA,NA,NA,NA,NA,NA,NA,NA,NA,NA,NA,"705","705",3,3382.79999999702
"494","12","structured","load","training","interference",NA,NA,NA,NA,NA,NA,NA,NA,NA,NA,NA,"517","517",3,4744.59999999404
"495","12","structured","load","training","interference",NA,NA,NA,NA,NA,NA,NA,NA,NA,NA,NA,"302","310",1,5039.20000000298
"496","12","structured","load","training","interference",NA,NA,NA,NA,NA,NA,NA,NA,NA,NA,NA,"204","204",3,2859.79999999702
"497","12","structured","load","training","interference",NA,NA,NA,NA,NA,NA,NA,NA,NA,NA,NA,"149","149",3,4293.29999999702
"498","12","structured","load","training","interference",NA,NA,NA,NA,NA,NA,NA,NA,NA,NA,NA,"319","319",3,4414.70000000298
"499","12","structured","load","training","interference",NA,NA,NA,NA,NA,NA,NA,NA,NA,NA,NA,"736","736",3,5115.29999999702
"500","12","structured","load","training","interference",NA,NA,NA,NA,NA,NA,NA,NA,NA,NA,NA,"137","137",3,4029.20000000298
"501","12","structured","load","training","interference",NA,NA,NA,NA,NA,NA,NA,NA,NA,NA,NA,"817","817",3,3957.40000000596
"502","12","structured","load","training","interference",NA,NA,NA,NA,NA,NA,NA,NA,NA,NA,NA,"392","397",2,3924.09999999404
"503","12","structured","load","training","interference",NA,NA,NA,NA,NA,NA,NA,NA,NA,NA,NA,"362","362",3,4434.09999999404
"504","12","structured","load","training","interference",NA,NA,NA,NA,NA,NA,NA,NA,NA,NA,NA,"175","175",3,3606.5
"505","12","structured","load","training","interference",NA,NA,NA,NA,NA,NA,NA,NA,NA,NA,NA,"386","386",3,2635.09999999404
"506","12","structured","load","training","interference",NA,NA,NA,NA,NA,NA,NA,NA,NA,NA,NA,"142","142",3,8592.59999999404
"507","12","structured","load","training","interference",NA,NA,NA,NA,NA,NA,NA,NA,NA,NA,NA,"357","357",3,3360
"508","12","structured","load","training","interference",NA,NA,NA,NA,NA,NA,NA,NA,NA,NA,NA,"258","258",3,3045.5
"509","12","structured","load","training","interference",NA,NA,NA,NA,NA,NA,NA,NA,NA,NA,NA,"938","938",3,4014.80000001192
"510","12","structured","load","training","interference",NA,NA,NA,NA,NA,NA,NA,NA,NA,NA,NA,"069","179",1,5840.5
"511","12","structured","load","training","interference",NA,NA,NA,NA,NA,NA,NA,NA,NA,NA,NA,"091","091",3,5793.20000000298
"512","12","structured","load","training","interference",NA,NA,NA,NA,NA,NA,NA,NA,NA,NA,NA,"583","583",3,4030.79999999702
"513","12","structured","load","training","interference",NA,NA,NA,NA,NA,NA,NA,NA,NA,NA,NA,"758","758",3,3124.90000000596
"514","12","structured","load","training","interference",NA,NA,NA,NA,NA,NA,NA,NA,NA,NA,NA,"749","749",3,3668.29999999702
"515","12","structured","load","training","interference",NA,NA,NA,NA,NA,NA,NA,NA,NA,NA,NA,"702","702",3,5813.30000001192
"516","12","structured","load","training","interference",NA,NA,NA,NA,NA,NA,NA,NA,NA,NA,NA,"839","839",3,5448.29999999702
"517","12","structured","load","training","interference",NA,NA,NA,NA,NA,NA,NA,NA,NA,NA,NA,"530","530",3,2019.70000000298
"518","12","structured","load","training","interference",NA,NA,NA,NA,NA,NA,NA,NA,NA,NA,NA,"920","920",3,2956
"519","12","structured","load","training","interference",NA,NA,NA,NA,NA,NA,NA,NA,NA,NA,NA,"749","749",3,4488.29999999702
"520","12","structured","load","training","interference",NA,NA,NA,NA,NA,NA,NA,NA,NA,NA,NA,"315","739",0,5113.29999999702
"521","12","structured","load","training","interference",NA,NA,NA,NA,NA,NA,NA,NA,NA,NA,NA,"951","95",2,5322.09999999404
"522","12","structured","load","training","interference",NA,NA,NA,NA,NA,NA,NA,NA,NA,NA,NA,"283","283",3,3310
"523","12","structured","load","training","interference",NA,NA,NA,NA,NA,NA,NA,NA,NA,NA,NA,"486","486",3,3228.09999999404
"524","12","structured","load","training","interference",NA,NA,NA,NA,NA,NA,NA,NA,NA,NA,NA,"471","471",3,3983.79999999702
"525","12","structured","load","training","interference",NA,NA,NA,NA,NA,NA,NA,NA,NA,NA,NA,"753","753",3,7838.40000000596
"526","12","structured","load","training","interference",NA,NA,NA,NA,NA,NA,NA,NA,NA,NA,NA,"809","809",3,3088.79999999702
"527","12","structured","load","training","interference",NA,NA,NA,NA,NA,NA,NA,NA,NA,NA,NA,"718","718",3,13510.1000000089
"528","12","structured","load","training","interference",NA,NA,NA,NA,NA,NA,NA,NA,NA,NA,NA,"418","418",3,5277.40000000596
"529","12","structured","load","training","interference",NA,NA,NA,NA,NA,NA,NA,NA,NA,NA,NA,"038","038",3,3033.70000000298
"530","12","structured","load","training","interference",NA,NA,NA,NA,NA,NA,NA,NA,NA,NA,NA,"170","170",3,2131.70000000298
"531","12","structured","load","training","interference",NA,NA,NA,NA,NA,NA,NA,NA,NA,NA,NA,"263","263",3,2816.59999999404
"532","12","structured","load","training","interference",NA,NA,NA,NA,NA,NA,NA,NA,NA,NA,NA,"719","719",3,3053
"533","12","structured","load","training","interference",NA,NA,NA,NA,NA,NA,NA,NA,NA,NA,NA,"641","641",3,2579.60000000894
"534","12","structured","load","training","interference",NA,NA,NA,NA,NA,NA,NA,NA,NA,NA,NA,"827","827",3,4655.70000000298
"535","12","structured","load","training","interference",NA,NA,NA,NA,NA,NA,NA,NA,NA,NA,NA,"950","817",0,2850.20000000298
"536","12","structured","load","training","interference",NA,NA,NA,NA,NA,NA,NA,NA,NA,NA,NA,"806","806",3,2867.79999999702
"537","12","structured","load","training","interference",NA,NA,NA,NA,NA,NA,NA,NA,NA,NA,NA,"390","390",3,4751.79999999702
"538","12","structured","load","training","interference",NA,NA,NA,NA,NA,NA,NA,NA,NA,NA,NA,"841","841",3,3429.80000001192
"539","12","structured","load","training","interference",NA,NA,NA,NA,NA,NA,NA,NA,NA,NA,NA,"607","607",3,5241.70000000298
"540","12","structured","load","testing",NA,"stim03","square","spotted","poponi","ni",0,"lalani",0,4,0.666666666666667,0.333333333333333,NA,NA,NA,8108.60000000894
"541","12","structured","load","testing",NA,"stim02","square","striped","popobi","bi",0,"zzzzzz",0,6,1,0,NA,NA,NA,6029.59999999404
"542","12","structured","load","testing",NA,"stim04","triangle","checkerboard","lalalu","lu",0,"oblonga",0,6,0.857142857142857,0.142857142857143,NA,NA,NA,3295.10000000894
"543","12","structured","load","testing",NA,"stim01","square","checkerboard","popolu","lu",0,"zzzzzz",0,6,1,0,NA,NA,NA,2328.20000000298
"544","12","structured","load","testing",NA,"stim07","circle","checkerboard","huhulu","lu",0,"hulu",0,2,0.333333333333333,0.666666666666667,NA,NA,NA,5642.20000000298
"545","12","structured","load","testing",NA,"stim06","triangle","spotted","lalani","ni",0,"lalani",1,0,0,1,NA,NA,NA,4844.70000000298
"546","12","structured","load","testing",NA,"stim08","circle","striped","huhubi","bi",0,"hulu",0,3,0.5,0.5,NA,NA,NA,3668.5
"547","12","structured","load","testing",NA,"stim05","triangle","striped","lalabi","bi",0,"zzzzzz",0,6,1,0,NA,NA,NA,3021.29999999702
"548","12","structured","load","testing",NA,"stim09","circle","spotted","huhuni","ni",0,"hulu",0,3,0.5,0.5,NA,NA,NA,3504.60000000894
"549","13","unstructured","no load","testing",NA,"stim03","square","spotted","momoni","ni",1,"momoni",1,0,0,1,NA,NA,NA,8328.10000002384
"550","13","unstructured","no load","testing",NA,"stim01","square","checkerboard","momobi","bi",1,"momofa",0,2,0.333333333333333,0.666666666666667,NA,NA,NA,9600.60000002384
"551","13","unstructured","no load","testing",NA,"stim05","triangle","striped","tuturi","ri",1,"tuturi",1,0,0,1,NA,NA,NA,5031.30000001192
"552","13","unstructured","no load","testing",NA,"stim08","circle","striped","huhuva","va",1,"huhuri",0,2,0.333333333333333,0.666666666666667,NA,NA,NA,54017.6000000238
"553","13","unstructured","no load","testing",NA,"stim04","triangle","checkerboard","tutudo","do",1,"tutufa",0,2,0.333333333333333,0.666666666666667,NA,NA,NA,6241.60000002384
"554","13","unstructured","no load","testing",NA,"stim06","triangle","spotted","tutupa","pa",1,"tutudo",0,2,0.333333333333333,0.666666666666667,NA,NA,NA,11154.1000000238
"555","13","unstructured","no load","testing",NA,"stim07","circle","checkerboard","huhusu","su",1,"huhudo",0,2,0.333333333333333,0.666666666666667,NA,NA,NA,10675.1999999881
"556","13","unstructured","no load","testing",NA,"stim09","circle","spotted","huhulu","lu",1,"huhuno",0,2,0.333333333333333,0.666666666666667,NA,NA,NA,36410
"557","13","unstructured","no load","testing",NA,"stim02","square","striped","momofa","fa",1,"momodo",0,2,0.333333333333333,0.666666666666667,NA,NA,NA,7371.80000001192
"558","14","structured","no load","testing",NA,"stim06","triangle","spotted","popopa","pa",0,"popupa",0,1,0.166666666666667,0.833333333333333,NA,NA,NA,36013.7000002861
"559","14","structured","no load","testing",NA,"stim03","square","spotted","tutupa","pa",0,"tutupa",1,0,0,1,NA,NA,NA,20282.5
"560","14","structured","no load","testing",NA,"stim02","square","striped","tutufa","fa",0,"susufa",0,2,0.333333333333333,0.666666666666667,NA,NA,NA,30527.9000000954
"561","14","structured","no load","testing",NA,"stim01","square","checkerboard","tutusu","su",0,"tutusu",1,0,0,1,NA,NA,NA,16857.6000003815
"562","14","structured","no load","testing",NA,"stim07","circle","checkerboard","nenesu","su",0,"menesu",0,1,0.166666666666667,0.833333333333333,NA,NA,NA,27250.2000002861
"563","14","structured","no load","testing",NA,"stim04","triangle","checkerboard","poposu","su",0,"poposu",1,0,0,1,NA,NA,NA,22288.8999996185
"564","14","structured","no load","testing",NA,"stim05","triangle","striped","popofa","fa",0,"popofa",1,0,0,1,NA,NA,NA,20735.5999999046
"565","14","structured","no load","testing",NA,"stim09","circle","spotted","nenepa","pa",0,"memepa",0,2,0.333333333333333,0.666666666666667,NA,NA,NA,28088.4000000954
"566","14","structured","no load","testing",NA,"stim08","circle","striped","nenefa","fa",0,"memefa",0,2,0.333333333333333,0.666666666666667,NA,NA,NA,19223.0999999046
"567","15","unstructured","no load","testing",NA,"stim02","square","striped","neneni","ni",1,"nenelu",0,2,0.333333333333333,0.666666666666667,NA,NA,NA,12254
"568","15","unstructured","no load","testing",NA,"stim09","circle","spotted","tutupa","pa",1,"tutuvu",0,2,0.333333333333333,0.666666666666667,NA,NA,NA,8926.5
"569","15","unstructured","no load","testing",NA,"stim07","circle","checkerboard","tutufa","fa",1,"tutufa",1,0,0,1,NA,NA,NA,5830.5
"570","15","unstructured","no load","testing",NA,"stim03","square","spotted","nenelu","lu",1,"nenulu",0,1,0.166666666666667,0.833333333333333,NA,NA,NA,16108
"571","15","unstructured","no load","testing",NA,"stim01","square","checkerboard","nenesu","su",1,"nenescu",0,1,0.142857142857143,0.857142857142857,NA,NA,NA,9582.30000001192
"572","15","unstructured","no load","testing",NA,"stim06","triangle","spotted","momori","ri",1,"momori",1,0,0,1,NA,NA,NA,5469
"573","15","unstructured","no load","testing",NA,"stim05","triangle","striped","momobi","bi",1,"momboso",0,3,0.428571428571429,0.571428571428571,NA,NA,NA,10897.9000000358
"574","15","unstructured","no load","testing",NA,"stim08","circle","striped","tutuva","va",1,"tutupa",0,1,0.166666666666667,0.833333333333333,NA,NA,NA,6210.5
"575","15","unstructured","no load","testing",NA,"stim04","triangle","checkerboard","momodo","do",1,"momodo",1,0,0,1,NA,NA,NA,5925
"576","16","structured","no load","testing",NA,"stim08","circle","striped","momobi","bi",0,"momobi",1,0,0,1,NA,NA,NA,4047.70000004768
"577","16","structured","no load","testing",NA,"stim05","triangle","striped","kikibi","bi",0,"kikibi",1,0,0,1,NA,NA,NA,5602.19999998808
"578","16","structured","no load","testing",NA,"stim02","square","striped","tutubi","bi",0,"tutubi",1,0,0,1,NA,NA,NA,9328.39999997616
"579","16","structured","no load","testing",NA,"stim03","square","spotted","tutuni","ni",0,"tutuni",1,0,0,1,NA,NA,NA,4910.80000001192
"580","16","structured","no load","testing",NA,"stim06","triangle","spotted","kikini","ni",0,"kikini",1,0,0,1,NA,NA,NA,3226.59999996424
"581","16","structured","no load","testing",NA,"stim04","triangle","checkerboard","kikifa","fa",0,"kikifa",1,0,0,1,NA,NA,NA,5573.19999998808
"582","16","structured","no load","testing",NA,"stim09","circle","spotted","momoni","ni",0,"momoni",1,0,0,1,NA,NA,NA,7435
"583","16","structured","no load","testing",NA,"stim07","circle","checkerboard","momofa","fa",0,"momofa",1,0,0,1,NA,NA,NA,5192.30000001192
"584","16","structured","no load","testing",NA,"stim01","square","checkerboard","tutufa","fa",0,"tutufa",1,0,0,1,NA,NA,NA,10741
"585","17","partial","load","training","interference",NA,NA,NA,NA,NA,NA,NA,NA,NA,NA,NA,"308","308",3,4374.39999997616
"586","17","partial","load","training","interference",NA,NA,NA,NA,NA,NA,NA,NA,NA,NA,NA,"791","791",3,3164.59999999404
"587","17","partial","load","training","interference",NA,NA,NA,NA,NA,NA,NA,NA,NA,NA,NA,"362","362",3,1796.69999998808
"588","17","partial","load","training","interference",NA,NA,NA,NA,NA,NA,NA,NA,NA,NA,NA,"461","461",3,1475.10000002384
"589","17","partial","load","training","interference",NA,NA,NA,NA,NA,NA,NA,NA,NA,NA,NA,"481","481",3,1531
"590","17","partial","load","training","interference",NA,NA,NA,NA,NA,NA,NA,NA,NA,NA,NA,"940","382",0,3120.5
"591","17","partial","load","training","interference",NA,NA,NA,NA,NA,NA,NA,NA,NA,NA,NA,"146","146",3,2111.40000000596
"592","17","partial","load","training","interference",NA,NA,NA,NA,NA,NA,NA,NA,NA,NA,NA,"613","613",3,1147.09999999404
"593","17","partial","load","training","interference",NA,NA,NA,NA,NA,NA,NA,NA,NA,NA,NA,"537","537",3,1495.5
"594","17","partial","load","training","interference",NA,NA,NA,NA,NA,NA,NA,NA,NA,NA,NA,"518","581",1,2743.59999999404
"595","17","partial","load","training","interference",NA,NA,NA,NA,NA,NA,NA,NA,NA,NA,NA,"640","640",3,1553.30000001192
"596","17","partial","load","training","interference",NA,NA,NA,NA,NA,NA,NA,NA,NA,NA,NA,"042","042",3,1466.89999997616
"597","17","partial","load","training","interference",NA,NA,NA,NA,NA,NA,NA,NA,NA,NA,NA,"460","862",1,2314.29999998212
"598","17","partial","load","training","interference",NA,NA,NA,NA,NA,NA,NA,NA,NA,NA,NA,"428","428",3,2087.5
"599","17","partial","load","training","interference",NA,NA,NA,NA,NA,NA,NA,NA,NA,NA,NA,"714","719",2,2014.19999998808
"600","17","partial","load","training","interference",NA,NA,NA,NA,NA,NA,NA,NA,NA,NA,NA,"729","729",3,2208.79999998212
"601","17","partial","load","training","interference",NA,NA,NA,NA,NA,NA,NA,NA,NA,NA,NA,"374","374",3,1826.10000002384
"602","17","partial","load","training","interference",NA,NA,NA,NA,NA,NA,NA,NA,NA,NA,NA,"140","140",3,1742.19999998808
"603","17","partial","load","training","interference",NA,NA,NA,NA,NA,NA,NA,NA,NA,NA,NA,"693","693",3,2533.5
"604","17","partial","load","training","interference",NA,NA,NA,NA,NA,NA,NA,NA,NA,NA,NA,"268","268",3,1804.69999998808
"605","17","partial","load","training","interference",NA,NA,NA,NA,NA,NA,NA,NA,NA,NA,NA,"531","531",3,1400.69999998808
"606","17","partial","load","training","interference",NA,NA,NA,NA,NA,NA,NA,NA,NA,NA,NA,"605","605",3,1717.5
"607","17","partial","load","training","interference",NA,NA,NA,NA,NA,NA,NA,NA,NA,NA,NA,"057","057",3,1680.79999998212
"608","17","partial","load","training","interference",NA,NA,NA,NA,NA,NA,NA,NA,NA,NA,NA,"085","085",3,1376.79999998212
"609","17","partial","load","training","interference",NA,NA,NA,NA,NA,NA,NA,NA,NA,NA,NA,"302","302",3,2947
"610","17","partial","load","training","interference",NA,NA,NA,NA,NA,NA,NA,NA,NA,NA,NA,"796","362",0,1706.40000000596
"611","17","partial","load","training","interference",NA,NA,NA,NA,NA,NA,NA,NA,NA,NA,NA,"082","082",3,1588.10000002384
"612","17","partial","load","training","interference",NA,NA,NA,NA,NA,NA,NA,NA,NA,NA,NA,"371","032",0,1447.69999998808
"613","17","partial","load","training","interference",NA,NA,NA,NA,NA,NA,NA,NA,NA,NA,NA,"486","482",2,2859.5
"614","17","partial","load","training","interference",NA,NA,NA,NA,NA,NA,NA,NA,NA,NA,NA,"042","042",3,1696.79999998212
"615","17","partial","load","training","interference",NA,NA,NA,NA,NA,NA,NA,NA,NA,NA,NA,"409","409",3,1540.59999999404
"616","17","partial","load","training","interference",NA,NA,NA,NA,NA,NA,NA,NA,NA,NA,NA,"617","609",1,1757
"617","17","partial","load","training","interference",NA,NA,NA,NA,NA,NA,NA,NA,NA,NA,NA,"371","371",3,1654.19999998808
"618","17","partial","load","training","interference",NA,NA,NA,NA,NA,NA,NA,NA,NA,NA,NA,"582","582",3,1869.09999999404
"619","17","partial","load","training","interference",NA,NA,NA,NA,NA,NA,NA,NA,NA,NA,NA,"752","752",3,1971.70000001788
"620","17","partial","load","training","interference",NA,NA,NA,NA,NA,NA,NA,NA,NA,NA,NA,"741","791",2,1457.09999999404
"621","17","partial","load","training","interference",NA,NA,NA,NA,NA,NA,NA,NA,NA,NA,NA,"716","716",3,2156.80000001192
"622","17","partial","load","training","interference",NA,NA,NA,NA,NA,NA,NA,NA,NA,NA,NA,"914","719",1,1633
"623","17","partial","load","training","interference",NA,NA,NA,NA,NA,NA,NA,NA,NA,NA,NA,"790","790",3,2218.90000000596
"624","17","partial","load","training","interference",NA,NA,NA,NA,NA,NA,NA,NA,NA,NA,NA,"942","791",0,2754
"625","17","partial","load","training","interference",NA,NA,NA,NA,NA,NA,NA,NA,NA,NA,NA,"368","368",3,2694
"626","17","partial","load","training","interference",NA,NA,NA,NA,NA,NA,NA,NA,NA,NA,NA,"629","629",3,1580
"627","17","partial","load","training","interference",NA,NA,NA,NA,NA,NA,NA,NA,NA,NA,NA,"286","226",2,3695.69999998808
"628","17","partial","load","training","interference",NA,NA,NA,NA,NA,NA,NA,NA,NA,NA,NA,"502","502",3,1322.19999998808
"629","17","partial","load","training","interference",NA,NA,NA,NA,NA,NA,NA,NA,NA,NA,NA,"264","264",3,1502.30000001192
"630","17","partial","load","training","interference",NA,NA,NA,NA,NA,NA,NA,NA,NA,NA,NA,"857","222",0,3823
"631","17","partial","load","training","interference",NA,NA,NA,NA,NA,NA,NA,NA,NA,NA,NA,"826","826",3,1581.5
"632","17","partial","load","training","interference",NA,NA,NA,NA,NA,NA,NA,NA,NA,NA,NA,"529","529",3,3399.19999998808
"633","17","partial","load","training","interference",NA,NA,NA,NA,NA,NA,NA,NA,NA,NA,NA,"186","526",1,2296.5
"634","17","partial","load","training","interference",NA,NA,NA,NA,NA,NA,NA,NA,NA,NA,NA,"581","581",3,1924.5
"635","17","partial","load","training","interference",NA,NA,NA,NA,NA,NA,NA,NA,NA,NA,NA,"924","924",3,1786.20000001788
"636","17","partial","load","training","interference",NA,NA,NA,NA,NA,NA,NA,NA,NA,NA,NA,"369","369",3,1521.80000001192
"637","17","partial","load","training","interference",NA,NA,NA,NA,NA,NA,NA,NA,NA,NA,NA,"948","948",3,2620.29999998212
"638","17","partial","load","training","interference",NA,NA,NA,NA,NA,NA,NA,NA,NA,NA,NA,"814","814",3,1712.70000001788
"639","17","partial","load","training","interference",NA,NA,NA,NA,NA,NA,NA,NA,NA,NA,NA,"025","025",3,2196.30000001192
"640","17","partial","load","testing",NA,"stim04","triangle","checkerboard","bebefa","fa",0,"bebeni",0,2,0.333333333333333,0.666666666666667,NA,NA,NA,8249.79999998212
"641","17","partial","load","testing",NA,"stim06","triangle","spotted","bebedo","do",0,"bebopa",0,3,0.5,0.5,NA,NA,NA,10763.1999999881
"642","17","partial","load","testing",NA,"stim07","circle","checkerboard","popofa","fa",0,"pophoa",0,2,0.333333333333333,0.666666666666667,NA,NA,NA,16611.599999994
"643","17","partial","load","testing",NA,"stim03","square","spotted","tutudo","do",0,"teteni",0,4,0.666666666666667,0.333333333333333,NA,NA,NA,12876.7999999821
"644","17","partial","load","testing",NA,"stim02","square","striped","tutuni","ni",0,"tutuni",1,0,0,1,NA,NA,NA,6240
"645","17","partial","load","testing",NA,"stim09","circle","spotted","popopa","pa",1,"poponi",0,2,0.333333333333333,0.666666666666667,NA,NA,NA,4505.40000000596
"646","17","partial","load","testing",NA,"stim08","circle","striped","poponi","ni",0,"popeni",0,1,0.166666666666667,0.833333333333333,NA,NA,NA,5223.90000000596
"647","17","partial","load","testing",NA,"stim05","triangle","striped","bebeni","ni",0,"bebeni",1,0,0,1,NA,NA,NA,7399.10000002384
"648","17","partial","load","testing",NA,"stim01","square","checkerboard","tutulu","lu",1,"tutuha",0,2,0.333333333333333,0.666666666666667,NA,NA,NA,5330.89999997616
"649","18","unstructured","load","training","interference",NA,NA,NA,NA,NA,NA,NA,NA,NA,NA,NA,"524","524",3,6846.99999999999
"650","18","unstructured","load","training","interference",NA,NA,NA,NA,NA,NA,NA,NA,NA,NA,NA,"684","684",3,5362
"651","18","unstructured","load","training","interference",NA,NA,NA,NA,NA,NA,NA,NA,NA,NA,NA,"405","405",3,6450.99999999999
"652","18","unstructured","load","training","interference",NA,NA,NA,NA,NA,NA,NA,NA,NA,NA,NA,"250","250",3,7511
"653","18","unstructured","load","training","interference",NA,NA,NA,NA,NA,NA,NA,NA,NA,NA,NA,"936","936",3,5672
"654","18","unstructured","load","training","interference",NA,NA,NA,NA,NA,NA,NA,NA,NA,NA,NA,"317","317",3,5507
"655","18","unstructured","load","training","interference",NA,NA,NA,NA,NA,NA,NA,NA,NA,NA,NA,"951","951",3,4940.99999999997
"656","18","unstructured","load","training","interference",NA,NA,NA,NA,NA,NA,NA,NA,NA,NA,NA,"192","192",3,4177
"657","18","unstructured","load","training","interference",NA,NA,NA,NA,NA,NA,NA,NA,NA,NA,NA,"641","641",3,4482
"658","18","unstructured","load","training","interference",NA,NA,NA,NA,NA,NA,NA,NA,NA,NA,NA,"706","706",3,4334
"659","18","unstructured","load","training","interference",NA,NA,NA,NA,NA,NA,NA,NA,NA,NA,NA,"274","274",3,4701
"660","18","unstructured","load","training","interference",NA,NA,NA,NA,NA,NA,NA,NA,NA,NA,NA,"840","840",3,7585.00000000003
"661","18","unstructured","load","training","interference",NA,NA,NA,NA,NA,NA,NA,NA,NA,NA,NA,"196","196",3,5003.00000000003
"662","18","unstructured","load","training","interference",NA,NA,NA,NA,NA,NA,NA,NA,NA,NA,NA,"092","092",3,6158
"663","18","unstructured","load","training","interference",NA,NA,NA,NA,NA,NA,NA,NA,NA,NA,NA,"758","758",3,4141
"664","18","unstructured","load","training","interference",NA,NA,NA,NA,NA,NA,NA,NA,NA,NA,NA,"642","642",3,4219
"665","18","unstructured","load","training","interference",NA,NA,NA,NA,NA,NA,NA,NA,NA,NA,NA,"081","042",1,4769.99999999994
"666","18","unstructured","load","training","interference",NA,NA,NA,NA,NA,NA,NA,NA,NA,NA,NA,"742","742",3,4219
"667","18","unstructured","load","training","interference",NA,NA,NA,NA,NA,NA,NA,NA,NA,NA,NA,"968","968",3,4270
"668","18","unstructured","load","training","interference",NA,NA,NA,NA,NA,NA,NA,NA,NA,NA,NA,"415","415",3,4705
"669","18","unstructured","load","training","interference",NA,NA,NA,NA,NA,NA,NA,NA,NA,NA,NA,"740","740",3,4203
"670","18","unstructured","load","training","interference",NA,NA,NA,NA,NA,NA,NA,NA,NA,NA,NA,"863","863",3,4281.00000000006
"671","18","unstructured","load","training","interference",NA,NA,NA,NA,NA,NA,NA,NA,NA,NA,NA,"146","146",3,4320
"672","18","unstructured","load","training","interference",NA,NA,NA,NA,NA,NA,NA,NA,NA,NA,NA,"374","374",3,5666
"673","18","unstructured","load","training","interference",NA,NA,NA,NA,NA,NA,NA,NA,NA,NA,NA,"520","520",3,4888
"674","18","unstructured","load","training","interference",NA,NA,NA,NA,NA,NA,NA,NA,NA,NA,NA,"693","693",3,4354.99999999994
"675","18","unstructured","load","training","interference",NA,NA,NA,NA,NA,NA,NA,NA,NA,NA,NA,"495","495",3,4159
"676","18","unstructured","load","training","interference",NA,NA,NA,NA,NA,NA,NA,NA,NA,NA,NA,"140","140",3,4379
"677","18","unstructured","load","training","interference",NA,NA,NA,NA,NA,NA,NA,NA,NA,NA,NA,"584","584",3,3788
"678","18","unstructured","load","training","interference",NA,NA,NA,NA,NA,NA,NA,NA,NA,NA,NA,"251","251",3,5564
"679","18","unstructured","load","training","interference",NA,NA,NA,NA,NA,NA,NA,NA,NA,NA,NA,"627","627",3,5504.99999999994
"680","18","unstructured","load","training","interference",NA,NA,NA,NA,NA,NA,NA,NA,NA,NA,NA,"692","692",3,4367.99999999994
"681","18","unstructured","load","training","interference",NA,NA,NA,NA,NA,NA,NA,NA,NA,NA,NA,"759","759",3,5723
"682","18","unstructured","load","training","interference",NA,NA,NA,NA,NA,NA,NA,NA,NA,NA,NA,"839","839",3,4807.99999999988
"683","18","unstructured","load","training","interference",NA,NA,NA,NA,NA,NA,NA,NA,NA,NA,NA,"682","682",3,4256
"684","18","unstructured","load","training","interference",NA,NA,NA,NA,NA,NA,NA,NA,NA,NA,NA,"807","807",3,4992
"685","18","unstructured","load","training","interference",NA,NA,NA,NA,NA,NA,NA,NA,NA,NA,NA,"064","064",3,4519
"686","18","unstructured","load","training","interference",NA,NA,NA,NA,NA,NA,NA,NA,NA,NA,NA,"530","530",3,5010
"687","18","unstructured","load","training","interference",NA,NA,NA,NA,NA,NA,NA,NA,NA,NA,NA,"641","641",3,4718.99999999988
"688","18","unstructured","load","training","interference",NA,NA,NA,NA,NA,NA,NA,NA,NA,NA,NA,"796","796",3,4257
"689","18","unstructured","load","training","interference",NA,NA,NA,NA,NA,NA,NA,NA,NA,NA,NA,"605","605",3,4647
"690","18","unstructured","load","training","interference",NA,NA,NA,NA,NA,NA,NA,NA,NA,NA,NA,"051","051",3,4294
"691","18","unstructured","load","training","interference",NA,NA,NA,NA,NA,NA,NA,NA,NA,NA,NA,"617","617",3,6395.99999999988
"692","18","unstructured","load","training","interference",NA,NA,NA,NA,NA,NA,NA,NA,NA,NA,NA,"480","480",3,4422
"693","18","unstructured","load","training","interference",NA,NA,NA,NA,NA,NA,NA,NA,NA,NA,NA,"475","475",3,4225.00000000012
"694","18","unstructured","load","training","interference",NA,NA,NA,NA,NA,NA,NA,NA,NA,NA,NA,"208","208",3,4457
"695","18","unstructured","load","training","interference",NA,NA,NA,NA,NA,NA,NA,NA,NA,NA,NA,"946","946",3,5786.00000000012
"696","18","unstructured","load","training","interference",NA,NA,NA,NA,NA,NA,NA,NA,NA,NA,NA,"642","642",3,6952
"697","18","unstructured","load","training","interference",NA,NA,NA,NA,NA,NA,NA,NA,NA,NA,NA,"638","638",3,4681
"698","18","unstructured","load","training","interference",NA,NA,NA,NA,NA,NA,NA,NA,NA,NA,NA,"036","036",3,4636.00000000012
"699","18","unstructured","load","training","interference",NA,NA,NA,NA,NA,NA,NA,NA,NA,NA,NA,"726","756",2,4140
"700","18","unstructured","load","training","interference",NA,NA,NA,NA,NA,NA,NA,NA,NA,NA,NA,"649","649",3,5013.00000000012
"701","18","unstructured","load","training","interference",NA,NA,NA,NA,NA,NA,NA,NA,NA,NA,NA,"916","916",3,4847
"702","18","unstructured","load","training","interference",NA,NA,NA,NA,NA,NA,NA,NA,NA,NA,NA,"738","738",3,4524.99999999988
"703","18","unstructured","load","training","interference",NA,NA,NA,NA,NA,NA,NA,NA,NA,NA,NA,"641","641",3,4207
"704","18","unstructured","load","testing",NA,"stim03","square","spotted","kikido","do",1,"momoso",0,5,0.833333333333333,0.166666666666667,NA,NA,NA,8325
"705","18","unstructured","load","testing",NA,"stim02","square","striped","kikiri","ri",1,"kikiru",0,1,0.166666666666667,0.833333333333333,NA,NA,NA,9907
"706","18","unstructured","load","testing",NA,"stim01","square","checkerboard","kikibi","bi",1,"momosa",0,6,1,0,NA,NA,NA,8310
"707","18","unstructured","load","testing",NA,"stim04","triangle","checkerboard","momopa","pa",1,"huhuli",0,6,1,0,NA,NA,NA,7305
"708","18","unstructured","load","testing",NA,"stim05","triangle","striped","momosu","su",1,"zzzzzz",0,6,1,0,NA,NA,NA,7684.99999999988
"709","18","unstructured","load","testing",NA,"stim06","triangle","spotted","momofa","fa",1,"zzzzzz",0,6,1,0,NA,NA,NA,7786
"710","18","unstructured","load","testing",NA,"stim07","circle","checkerboard","huhuva","va",1,"zzzzzz",0,6,1,0,NA,NA,NA,6376
"711","18","unstructured","load","testing",NA,"stim09","circle","spotted","huhulu","lu",1,"zzzzzz",0,6,1,0,NA,NA,NA,5742
"712","18","unstructured","load","testing",NA,"stim08","circle","striped","huhuni","ni",1,"zzzzzz",0,6,1,0,NA,NA,NA,7638.00000000012
"713","19","partial","load","training","interference",NA,NA,NA,NA,NA,NA,NA,NA,NA,NA,NA,"072","072",3,6976
"714","19","partial","load","training","interference",NA,NA,NA,NA,NA,NA,NA,NA,NA,NA,NA,"097","097",3,4794
"715","19","partial","load","training","interference",NA,NA,NA,NA,NA,NA,NA,NA,NA,NA,NA,"806","806",3,4937.99999999999
"716","19","partial","load","training","interference",NA,NA,NA,NA,NA,NA,NA,NA,NA,NA,NA,"462","462",3,4779.00000000001
"717","19","partial","load","training","interference",NA,NA,NA,NA,NA,NA,NA,NA,NA,NA,NA,"469","469",3,4630
"718","19","partial","load","training","interference",NA,NA,NA,NA,NA,NA,NA,NA,NA,NA,NA,"314","314",3,3832
"719","19","partial","load","training","interference",NA,NA,NA,NA,NA,NA,NA,NA,NA,NA,NA,"796","396",2,4883
"720","19","partial","load","training","interference",NA,NA,NA,NA,NA,NA,NA,NA,NA,NA,NA,"938","938",3,4658.00000000003
"721","19","partial","load","training","interference",NA,NA,NA,NA,NA,NA,NA,NA,NA,NA,NA,"130","140",2,4571.99999999997
"722","19","partial","load","training","interference",NA,NA,NA,NA,NA,NA,NA,NA,NA,NA,NA,"572","572",3,4649
"723","19","partial","load","training","interference",NA,NA,NA,NA,NA,NA,NA,NA,NA,NA,NA,"025","025",3,7945
"724","19","partial","load","training","interference",NA,NA,NA,NA,NA,NA,NA,NA,NA,NA,NA,"264","264",3,5443.00000000003
"725","19","partial","load","training","interference",NA,NA,NA,NA,NA,NA,NA,NA,NA,NA,NA,"570","570",3,5138
"726","19","partial","load","training","interference",NA,NA,NA,NA,NA,NA,NA,NA,NA,NA,NA,"240","240",3,6387.99999999997
"727","19","partial","load","training","interference",NA,NA,NA,NA,NA,NA,NA,NA,NA,NA,NA,"140","140",3,5619
"728","19","partial","load","training","interference",NA,NA,NA,NA,NA,NA,NA,NA,NA,NA,NA,"168","168",3,5290
"729","19","partial","load","training","interference",NA,NA,NA,NA,NA,NA,NA,NA,NA,NA,NA,"158","158",3,6525
"730","19","partial","load","training","interference",NA,NA,NA,NA,NA,NA,NA,NA,NA,NA,NA,"392","392",3,6240
"731","19","partial","load","training","interference",NA,NA,NA,NA,NA,NA,NA,NA,NA,NA,NA,"397","397",3,4899
"732","19","partial","load","training","interference",NA,NA,NA,NA,NA,NA,NA,NA,NA,NA,NA,"096","096",3,4420
"733","19","partial","load","training","interference",NA,NA,NA,NA,NA,NA,NA,NA,NA,NA,NA,"697","697",3,5455
"734","19","partial","load","training","interference",NA,NA,NA,NA,NA,NA,NA,NA,NA,NA,NA,"863","863",3,7186.99999999994
"735","19","partial","load","training","interference",NA,NA,NA,NA,NA,NA,NA,NA,NA,NA,NA,"169","169",3,4950
"736","19","partial","load","training","interference",NA,NA,NA,NA,NA,NA,NA,NA,NA,NA,NA,"072","072",3,4978.99999999994
"737","19","partial","load","training","interference",NA,NA,NA,NA,NA,NA,NA,NA,NA,NA,NA,"295","292",2,3953
"738","19","partial","load","training","interference",NA,NA,NA,NA,NA,NA,NA,NA,NA,NA,NA,"716","716",3,4743
"739","19","partial","load","training","interference",NA,NA,NA,NA,NA,NA,NA,NA,NA,NA,NA,"374","374",3,4181.99999999994
"740","19","partial","load","training","interference",NA,NA,NA,NA,NA,NA,NA,NA,NA,NA,NA,"263","263",3,3876
"741","19","partial","load","training","interference",NA,NA,NA,NA,NA,NA,NA,NA,NA,NA,NA,"613","613",3,5609
"742","19","partial","load","training","interference",NA,NA,NA,NA,NA,NA,NA,NA,NA,NA,NA,"639","639",3,4623.99999999994
"743","19","partial","load","training","interference",NA,NA,NA,NA,NA,NA,NA,NA,NA,NA,NA,"284","284",3,4414
"744","19","partial","load","training","interference",NA,NA,NA,NA,NA,NA,NA,NA,NA,NA,NA,"506","506",3,4325
"745","19","partial","load","training","interference",NA,NA,NA,NA,NA,NA,NA,NA,NA,NA,NA,"951","951",3,4402
"746","19","partial","load","training","interference",NA,NA,NA,NA,NA,NA,NA,NA,NA,NA,NA,"903","915",1,4260
"747","19","partial","load","training","interference",NA,NA,NA,NA,NA,NA,NA,NA,NA,NA,NA,"517","517",3,3748.99999999988
"748","19","partial","load","training","interference",NA,NA,NA,NA,NA,NA,NA,NA,NA,NA,NA,"359","359",3,4289
"749","19","partial","load","training","interference",NA,NA,NA,NA,NA,NA,NA,NA,NA,NA,NA,"963","963",3,4637
"750","19","partial","load","training","interference",NA,NA,NA,NA,NA,NA,NA,NA,NA,NA,NA,"302","302",3,4699
"751","19","partial","load","training","interference",NA,NA,NA,NA,NA,NA,NA,NA,NA,NA,NA,"596","596",3,4434
"752","19","partial","load","training","interference",NA,NA,NA,NA,NA,NA,NA,NA,NA,NA,NA,"739","739",3,3964
"753","19","partial","load","training","interference",NA,NA,NA,NA,NA,NA,NA,NA,NA,NA,NA,"475","475",3,4493
"754","19","partial","load","training","interference",NA,NA,NA,NA,NA,NA,NA,NA,NA,NA,NA,"379","475",1,6386
"755","19","partial","load","training","interference",NA,NA,NA,NA,NA,NA,NA,NA,NA,NA,NA,"409","409",3,6055
"756","19","partial","load","training","interference",NA,NA,NA,NA,NA,NA,NA,NA,NA,NA,NA,"790","790",3,5575
"757","19","partial","load","training","interference",NA,NA,NA,NA,NA,NA,NA,NA,NA,NA,NA,"469","469",3,4726
"758","19","partial","load","training","interference",NA,NA,NA,NA,NA,NA,NA,NA,NA,NA,NA,"483","483",3,4261
"759","19","partial","load","training","interference",NA,NA,NA,NA,NA,NA,NA,NA,NA,NA,NA,"047","047",3,4877
"760","19","partial","load","training","interference",NA,NA,NA,NA,NA,NA,NA,NA,NA,NA,NA,"368","368",3,4470
"761","19","partial","load","training","interference",NA,NA,NA,NA,NA,NA,NA,NA,NA,NA,NA,"096","096",3,4188.00000000012
"762","19","partial","load","training","interference",NA,NA,NA,NA,NA,NA,NA,NA,NA,NA,NA,"038","038",3,5048
"763","19","partial","load","training","interference",NA,NA,NA,NA,NA,NA,NA,NA,NA,NA,NA,"518","518",3,3781
"764","19","partial","load","training","interference",NA,NA,NA,NA,NA,NA,NA,NA,NA,NA,NA,"370","370",3,4510
"765","19","partial","load","training","interference",NA,NA,NA,NA,NA,NA,NA,NA,NA,NA,NA,"350","390",2,4713
"766","19","partial","load","training","interference",NA,NA,NA,NA,NA,NA,NA,NA,NA,NA,NA,"849","349",2,4004
"767","19","partial","load","training","interference",NA,NA,NA,NA,NA,NA,NA,NA,NA,NA,NA,"394","349",1,4799.00000000012
"768","19","partial","load","testing",NA,"stim06","triangle","spotted","momosu","su",0,"momosu",1,0,0,1,NA,NA,NA,9582
"769","19","partial","load","testing",NA,"stim07","circle","checkerboard","huhuni","ni",0,"huhusu",0,2,0.333333333333333,0.666666666666667,NA,NA,NA,10965
"770","19","partial","load","testing",NA,"stim09","circle","spotted","huhusu","su",0,"huhuni",0,2,0.333333333333333,0.666666666666667,NA,NA,NA,10500
"771","19","partial","load","testing",NA,"stim03","square","spotted","lalabi","bi",1,"lalani",0,1,0.166666666666667,0.833333333333333,NA,NA,NA,9095.00000000012
"772","19","partial","load","testing",NA,"stim04","triangle","checkerboard","momova","va",1,"momova",1,0,0,1,NA,NA,NA,8514
"773","19","partial","load","testing",NA,"stim08","circle","striped","huhudo","do",0,"huhudo",1,0,0,1,NA,NA,NA,13321
"774","19","partial","load","testing",NA,"stim02","square","striped","lalado","do",0,"lalado",1,0,0,1,NA,NA,NA,10495
"775","19","partial","load","testing",NA,"stim05","triangle","striped","momodo","do",0,"momoni",0,2,0.333333333333333,0.666666666666667,NA,NA,NA,13037.0000000001
"776","19","partial","load","testing",NA,"stim01","square","checkerboard","lalani","ni",0,"lalado",0,2,0.333333333333333,0.666666666666667,NA,NA,NA,11673
"777","20","unstructured","load","training","interference",NA,NA,NA,NA,NA,NA,NA,NA,NA,NA,NA,"369","369",3,6595
"778","20","unstructured","load","training","interference",NA,NA,NA,NA,NA,NA,NA,NA,NA,NA,NA,"613","613",3,5246.10000000149
"779","20","unstructured","load","training","interference",NA,NA,NA,NA,NA,NA,NA,NA,NA,NA,NA,"417","417",3,4912.19999999925
"780","20","unstructured","load","training","interference",NA,NA,NA,NA,NA,NA,NA,NA,NA,NA,NA,"925","925",3,4145.5
"781","20","unstructured","load","training","interference",NA,NA,NA,NA,NA,NA,NA,NA,NA,NA,NA,"372","325",1,4739.69999999925
"782","20","unstructured","load","training","interference",NA,NA,NA,NA,NA,NA,NA,NA,NA,NA,NA,"185","185",3,4075
"783","20","unstructured","load","training","interference",NA,NA,NA,NA,NA,NA,NA,NA,NA,NA,NA,"059","059",3,6586.39999999851
"784","20","unstructured","load","training","interference",NA,NA,NA,NA,NA,NA,NA,NA,NA,NA,NA,"572","525",1,7658.39999999851
"785","20","unstructured","load","training","interference",NA,NA,NA,NA,NA,NA,NA,NA,NA,NA,NA,"483","483",3,5338
"786","20","unstructured","load","training","interference",NA,NA,NA,NA,NA,NA,NA,NA,NA,NA,NA,"693","693",3,5082.80000000075
"787","20","unstructured","load","training","interference",NA,NA,NA,NA,NA,NA,NA,NA,NA,NA,NA,"092","092",3,4082.39999999851
"788","20","unstructured","load","training","interference",NA,NA,NA,NA,NA,NA,NA,NA,NA,NA,NA,"720","720",3,5843
"789","20","unstructured","load","training","interference",NA,NA,NA,NA,NA,NA,NA,NA,NA,NA,NA,"942","942",3,4074
"790","20","unstructured","load","training","interference",NA,NA,NA,NA,NA,NA,NA,NA,NA,NA,NA,"597","597",3,4313.5
"791","20","unstructured","load","training","interference",NA,NA,NA,NA,NA,NA,NA,NA,NA,NA,NA,"069","069",3,5067.60000000149
"792","20","unstructured","load","training","interference",NA,NA,NA,NA,NA,NA,NA,NA,NA,NA,NA,"790","790",3,4858.30000000075
"793","20","unstructured","load","training","interference",NA,NA,NA,NA,NA,NA,NA,NA,NA,NA,NA,"526","526",3,7074.39999999851
"794","20","unstructured","load","training","interference",NA,NA,NA,NA,NA,NA,NA,NA,NA,NA,NA,"179","179",3,5145.69999999925
"795","20","unstructured","load","training","interference",NA,NA,NA,NA,NA,NA,NA,NA,NA,NA,NA,"031","031",3,6115.30000000075
"796","20","unstructured","load","training","interference",NA,NA,NA,NA,NA,NA,NA,NA,NA,NA,NA,"925","925",3,7184.59999999776
"797","20","unstructured","load","training","interference",NA,NA,NA,NA,NA,NA,NA,NA,NA,NA,NA,"941","941",3,5164.60000000149
"798","20","unstructured","load","training","interference",NA,NA,NA,NA,NA,NA,NA,NA,NA,NA,NA,"963","946",1,7011.19999999925
"799","20","unstructured","load","training","interference",NA,NA,NA,NA,NA,NA,NA,NA,NA,NA,NA,"169","169",3,3276.19999999925
"800","20","unstructured","load","training","interference",NA,NA,NA,NA,NA,NA,NA,NA,NA,NA,NA,"263","263",3,2386.80000000075
"801","20","unstructured","load","training","interference",NA,NA,NA,NA,NA,NA,NA,NA,NA,NA,NA,"594","594",3,3787.80000000075
"802","20","unstructured","load","training","interference",NA,NA,NA,NA,NA,NA,NA,NA,NA,NA,NA,"824","824",3,4491.89999999851
"803","20","unstructured","load","training","interference",NA,NA,NA,NA,NA,NA,NA,NA,NA,NA,NA,"725","725",3,3417.80000000075
"804","20","unstructured","load","training","interference",NA,NA,NA,NA,NA,NA,NA,NA,NA,NA,NA,"396","396",3,3675
"805","20","unstructured","load","training","interference",NA,NA,NA,NA,NA,NA,NA,NA,NA,NA,NA,"139","139",3,3824.89999999851
"806","20","unstructured","load","training","interference",NA,NA,NA,NA,NA,NA,NA,NA,NA,NA,NA,"597","597",3,3548.90000000224
"807","20","unstructured","load","training","interference",NA,NA,NA,NA,NA,NA,NA,NA,NA,NA,NA,"702","702",3,2755.5
"808","20","unstructured","load","training","interference",NA,NA,NA,NA,NA,NA,NA,NA,NA,NA,NA,"592","592",3,3651.39999999851
"809","20","unstructured","load","training","interference",NA,NA,NA,NA,NA,NA,NA,NA,NA,NA,NA,"860","860",3,2738.89999999851
"810","20","unstructured","load","training","interference",NA,NA,NA,NA,NA,NA,NA,NA,NA,NA,NA,"473","473",3,2731.69999999925
"811","20","unstructured","load","training","interference",NA,NA,NA,NA,NA,NA,NA,NA,NA,NA,NA,"915","915",3,3497.5
"812","20","unstructured","load","training","interference",NA,NA,NA,NA,NA,NA,NA,NA,NA,NA,NA,"685","685",3,2906.29999999702
