participant_id,structure_condition,load_condition,block,trial_type,stimulus,shape,fill,target_word,suffix,irregular,word_typed,correct_word,edit_distance,normed_edit_distance,accuracy,target_sequence,sequence_typed,digits_correct,response_time
1,unstructured,load,training,interference,NA,NA,NA,NA,NA,NA,NA,NA,NA,NA,NA,973,973,3,3537.6
1,unstructured,load,training,interference,NA,NA,NA,NA,NA,NA,NA,NA,NA,NA,NA,624,624,3,4399.2
1,unstructured,load,training,interference,NA,NA,NA,NA,NA,NA,NA,NA,NA,NA,NA,614,624,2,4819.9
1,unstructured,load,training,interference,NA,NA,NA,NA,NA,NA,NA,NA,NA,NA,NA,175,175,3,2237.1
1,unstructured,load,training,interference,NA,NA,NA,NA,NA,NA,NA,NA,NA,NA,NA,572,572,3,2171.4
1,unstructured,load,training,interference,NA,NA,NA,NA,NA,NA,NA,NA,NA,NA,NA,279,279,3,3666.4
1,unstructured,load,training,interference,NA,NA,NA,NA,NA,NA,NA,NA,NA,NA,NA,806,806,3,2919.7
1,unstructured,load,training,interference,NA,NA,NA,NA,NA,NA,NA,NA,NA,NA,NA,204,204,3,3449.7
1,unstructured,load,training,interference,NA,NA,NA,NA,NA,NA,NA,NA,NA,NA,NA,264,264,3,2485.5
1,unstructured,load,training,interference,NA,NA,NA,NA,NA,NA,NA,NA,NA,NA,NA,835,835,3,2155.5
1,unstructured,load,training,interference,NA,NA,NA,NA,NA,NA,NA,NA,NA,NA,NA,708,708,3,1920.4
1,unstructured,load,training,interference,NA,NA,NA,NA,NA,NA,NA,NA,NA,NA,NA,608,608,3,1680.2
1,unstructured,load,training,interference,NA,NA,NA,NA,NA,NA,NA,NA,NA,NA,NA,742,742,3,1748.3
1,unstructured,load,training,interference,NA,NA,NA,NA,NA,NA,NA,NA,NA,NA,NA,809,809,3,1451.7
1,unstructured,load,training,interference,NA,NA,NA,NA,NA,NA,NA,NA,NA,NA,NA,726,726,3,2834.1
1,unstructured,load,training,interference,NA,NA,NA,NA,NA,NA,NA,NA,NA,NA,NA,908,908,3,1467.4
1,unstructured,load,training,interference,NA,NA,NA,NA,NA,NA,NA,NA,NA,NA,NA,53,53,3,4208.5
1,unstructured,load,training,interference,NA,NA,NA,NA,NA,NA,NA,NA,NA,NA,NA,851,851,3,3049.7
1,unstructured,load,training,interference,NA,NA,NA,NA,NA,NA,NA,NA,NA,NA,NA,948,948,3,1695
1,unstructured,load,training,interference,NA,NA,NA,NA,NA,NA,NA,NA,NA,NA,NA,570,570,3,2837.6
1,unstructured,load,training,interference,NA,NA,NA,NA,NA,NA,NA,NA,NA,NA,NA,793,793,3,1822.5
1,unstructured,load,training,interference,NA,NA,NA,NA,NA,NA,NA,NA,NA,NA,NA,135,135,3,3714.2
1,unstructured,load,training,interference,NA,NA,NA,NA,NA,NA,NA,NA,NA,NA,NA,708,312,0,3848.1
1,unstructured,load,training,interference,NA,NA,NA,NA,NA,NA,NA,NA,NA,NA,NA,528,528,3,1601.9
1,unstructured,load,training,interference,NA,NA,NA,NA,NA,NA,NA,NA,NA,NA,NA,573,573,3,1479.7
1,unstructured,load,training,interference,NA,NA,NA,NA,NA,NA,NA,NA,NA,NA,NA,250,250,3,5905.2
1,unstructured,load,training,interference,NA,NA,NA,NA,NA,NA,NA,NA,NA,NA,NA,371,371,3,1846
1,unstructured,load,training,interference,NA,NA,NA,NA,NA,NA,NA,NA,NA,NA,NA,752,572,1,1425.7
1,unstructured,load,training,interference,NA,NA,NA,NA,NA,NA,NA,NA,NA,NA,NA,316,316,3,1635.2
1,unstructured,load,training,interference,NA,NA,NA,NA,NA,NA,NA,NA,NA,NA,NA,173,173,3,1297.1
1,unstructured,load,training,interference,NA,NA,NA,NA,NA,NA,NA,NA,NA,NA,NA,381,381,3,1068.4
1,unstructured,load,training,interference,NA,NA,NA,NA,NA,NA,NA,NA,NA,NA,NA,483,483,3,1119.5
1,unstructured,load,training,interference,NA,NA,NA,NA,NA,NA,NA,NA,NA,NA,NA,29,92,1,2063.7
1,unstructured,load,training,interference,NA,NA,NA,NA,NA,NA,NA,NA,NA,NA,NA,359,359,3,1984.6
1,unstructured,load,training,interference,NA,NA,NA,NA,NA,NA,NA,NA,NA,NA,NA,625,625,3,1680.8
1,unstructured,load,training,interference,NA,NA,NA,NA,NA,NA,NA,NA,NA,NA,NA,391,391,3,1399.1
1,unstructured,load,training,interference,NA,NA,NA,NA,NA,NA,NA,NA,NA,NA,NA,706,706,3,1450.1
1,unstructured,load,training,interference,NA,NA,NA,NA,NA,NA,NA,NA,NA,NA,NA,617,617,3,2052.4
1,unstructured,load,training,interference,NA,NA,NA,NA,NA,NA,NA,NA,NA,NA,NA,742,742,3,1624.1
1,unstructured,load,training,interference,NA,NA,NA,NA,NA,NA,NA,NA,NA,NA,NA,384,384,3,1521
1,unstructured,load,training,interference,NA,NA,NA,NA,NA,NA,NA,NA,NA,NA,NA,579,579,3,1649.7
1,unstructured,load,training,interference,NA,NA,NA,NA,NA,NA,NA,NA,NA,NA,NA,194,194,3,1707.3
1,unstructured,load,training,interference,NA,NA,NA,NA,NA,NA,NA,NA,NA,NA,NA,274,274,3,1734.9
1,unstructured,load,training,interference,NA,NA,NA,NA,NA,NA,NA,NA,NA,NA,NA,495,495,3,1313.1
1,unstructured,load,training,interference,NA,NA,NA,NA,NA,NA,NA,NA,NA,NA,NA,283,283,3,2593.4
1,unstructured,load,training,interference,NA,NA,NA,NA,NA,NA,NA,NA,NA,NA,NA,192,193,2,1866.2
1,unstructured,load,training,interference,NA,NA,NA,NA,NA,NA,NA,NA,NA,NA,NA,407,407,3,1603.6
1,unstructured,load,training,interference,NA,NA,NA,NA,NA,NA,NA,NA,NA,NA,NA,942,942,3,1253.1
1,unstructured,load,training,interference,NA,NA,NA,NA,NA,NA,NA,NA,NA,NA,NA,293,923,1,1457.2
1,unstructured,load,training,interference,NA,NA,NA,NA,NA,NA,NA,NA,NA,NA,NA,173,173,3,2169.9
1,unstructured,load,training,interference,NA,NA,NA,NA,NA,NA,NA,NA,NA,NA,NA,147,147,3,2321.5
1,unstructured,load,training,interference,NA,NA,NA,NA,NA,NA,NA,NA,NA,NA,NA,250,259,2,2593.7
1,unstructured,load,training,interference,NA,NA,NA,NA,NA,NA,NA,NA,NA,NA,NA,302,302,3,1520.3
1,unstructured,load,training,interference,NA,NA,NA,NA,NA,NA,NA,NA,NA,NA,NA,148,148,3,1713.2
1,unstructured,load,training,interference,NA,NA,NA,NA,NA,NA,NA,NA,NA,NA,NA,593,593,3,1794.8
1,unstructured,load,testing,NA,stim02,square,striped,gagalu,lu,1,neneri,0,6,1,0,NA,NA,NA,13957.9
1,unstructured,load,testing,NA,stim05,triangle,striped,poposu,su,1,popofa,0,2,0.333333333,0.666666667,NA,NA,NA,4359.7
1,unstructured,load,testing,NA,stim03,square,spotted,gagapa,pa,1,gagado,0,2,0.333333333,0.666666667,NA,NA,NA,9542.1
1,unstructured,load,testing,NA,stim06,triangle,spotted,popova,va,1,gagado,0,6,1,0,NA,NA,NA,5578.4
1,unstructured,load,testing,NA,stim08,circle,striped,neneri,ri,1,popova,0,6,1,0,NA,NA,NA,5287.2
1,unstructured,load,testing,NA,stim04,triangle,checkerboard,popofa,fa,1,gagado,0,6,1,0,NA,NA,NA,4193.3
1,unstructured,load,testing,NA,stim07,circle,checkerboard,nenebi,bi,1,gagado,0,6,1,0,NA,NA,NA,2725.7
1,unstructured,load,testing,NA,stim01,square,checkerboard,gagado,do,1,popova,0,6,1,0,NA,NA,NA,4035.9
1,unstructured,load,testing,NA,stim09,circle,spotted,neneni,ni,1,g,0,6,1,0,NA,NA,NA,3359.4
2,unstructured,no load,testing,NA,stim04,triangle,checkerboard,kikiri,ri,1,kipopa,0,4,0.666666667,0.333333333,NA,NA,NA,11245
2,unstructured,no load,testing,NA,stim07,circle,checkerboard,momopa,pa,1,momopa,1,0,0,1,NA,NA,NA,9591
2,unstructured,no load,testing,NA,stim05,triangle,striped,kikifa,fa,1,kikipo,0,2,0.333333333,0.666666667,NA,NA,NA,9362
2,unstructured,no load,testing,NA,stim08,circle,striped,momova,va,1,movona,0,2,0.333333333,0.666666667,NA,NA,NA,6185
2,unstructured,no load,testing,NA,stim02,square,striped,popolu,lu,1,popolu,1,0,0,1,NA,NA,NA,8864
2,unstructured,no load,testing,NA,stim06,triangle,spotted,kikini,ni,1,kikini,1,0,0,1,NA,NA,NA,4227
2,unstructured,no load,testing,NA,stim09,circle,spotted,momodo,do,1,momodo,1,0,0,1,NA,NA,NA,4662
2,unstructured,no load,testing,NA,stim03,square,spotted,poposu,su,1,poposu,1,0,0,1,NA,NA,NA,9804
2,unstructured,no load,testing,NA,stim01,square,checkerboard,popobi,bi,1,popobo,0,1,0.166666667,0.833333333,NA,NA,NA,6004
3,unstructured,load,training,interference,NA,NA,NA,NA,NA,NA,NA,NA,NA,NA,NA,194,194,3,4251.1
3,unstructured,load,training,interference,NA,NA,NA,NA,NA,NA,NA,NA,NA,NA,NA,869,869,3,4062.6
3,unstructured,load,training,interference,NA,NA,NA,NA,NA,NA,NA,NA,NA,NA,NA,860,861,2,3490.2
3,unstructured,load,training,interference,NA,NA,NA,NA,NA,NA,NA,NA,NA,NA,NA,253,253,3,3070.2
3,unstructured,load,training,interference,NA,NA,NA,NA,NA,NA,NA,NA,NA,NA,NA,168,168,3,3094.5
3,unstructured,load,training,interference,NA,NA,NA,NA,NA,NA,NA,NA,NA,NA,NA,264,264,3,4774.4
3,unstructured,load,training,interference,NA,NA,NA,NA,NA,NA,NA,NA,NA,NA,NA,924,924,3,4009.8
3,unstructured,load,training,interference,NA,NA,NA,NA,NA,NA,NA,NA,NA,NA,NA,382,382,3,3332.7
3,unstructured,load,training,interference,NA,NA,NA,NA,NA,NA,NA,NA,NA,NA,NA,590,393,1,3874.5
3,unstructured,load,training,interference,NA,NA,NA,NA,NA,NA,NA,NA,NA,NA,NA,297,297,3,3139.9
3,unstructured,load,training,interference,NA,NA,NA,NA,NA,NA,NA,NA,NA,NA,NA,739,739,3,3114.8
3,unstructured,load,training,interference,NA,NA,NA,NA,NA,NA,NA,NA,NA,NA,NA,475,475,3,2858.1
3,unstructured,load,training,interference,NA,NA,NA,NA,NA,NA,NA,NA,NA,NA,NA,604,604,3,3163.9
3,unstructured,load,training,interference,NA,NA,NA,NA,NA,NA,NA,NA,NA,NA,NA,792,792,3,2522.9
3,unstructured,load,training,interference,NA,NA,NA,NA,NA,NA,NA,NA,NA,NA,NA,91,91,3,2712.5
3,unstructured,load,training,interference,NA,NA,NA,NA,NA,NA,NA,NA,NA,NA,NA,580,580,3,2534.6
3,unstructured,load,training,interference,NA,NA,NA,NA,NA,NA,NA,NA,NA,NA,NA,357,357,3,2822.4
3,unstructured,load,training,interference,NA,NA,NA,NA,NA,NA,NA,NA,NA,NA,NA,71,71,3,2649.1
3,unstructured,load,training,interference,NA,NA,NA,NA,NA,NA,NA,NA,NA,NA,NA,486,486,3,2985.8
3,unstructured,load,training,interference,NA,NA,NA,NA,NA,NA,NA,NA,NA,NA,NA,642,642,3,2590.2
3,unstructured,load,training,interference,NA,NA,NA,NA,NA,NA,NA,NA,NA,NA,NA,140,140,3,2771.4
3,unstructured,load,training,interference,NA,NA,NA,NA,NA,NA,NA,NA,NA,NA,NA,731,731,3,2368.5
3,unstructured,load,training,interference,NA,NA,NA,NA,NA,NA,NA,NA,NA,NA,NA,926,926,3,3503
3,unstructured,load,training,interference,NA,NA,NA,NA,NA,NA,NA,NA,NA,NA,NA,248,248,3,2840.6
3,unstructured,load,training,interference,NA,NA,NA,NA,NA,NA,NA,NA,NA,NA,NA,270,240,2,3158.1
3,unstructured,load,training,interference,NA,NA,NA,NA,NA,NA,NA,NA,NA,NA,NA,905,905,3,2768.3
3,unstructured,load,training,interference,NA,NA,NA,NA,NA,NA,NA,NA,NA,NA,NA,286,286,3,3628.7
3,unstructured,load,training,interference,NA,NA,NA,NA,NA,NA,NA,NA,NA,NA,NA,849,849,3,2738
3,unstructured,load,training,interference,NA,NA,NA,NA,NA,NA,NA,NA,NA,NA,NA,152,152,3,2671.1
3,unstructured,load,training,interference,NA,NA,NA,NA,NA,NA,NA,NA,NA,NA,NA,908,253,0,3874.1
3,unstructured,load,training,interference,NA,NA,NA,NA,NA,NA,NA,NA,NA,NA,NA,620,620,3,3043.3
3,unstructured,load,training,interference,NA,NA,NA,NA,NA,NA,NA,NA,NA,NA,NA,379,379,3,3111.9
3,unstructured,load,training,interference,NA,NA,NA,NA,NA,NA,NA,NA,NA,NA,NA,639,639,3,2865.2
3,unstructured,load,training,interference,NA,NA,NA,NA,NA,NA,NA,NA,NA,NA,NA,714,714,3,2888.5
3,unstructured,load,training,interference,NA,NA,NA,NA,NA,NA,NA,NA,NA,NA,NA,370,714,0,2688.7
3,unstructured,load,training,interference,NA,NA,NA,NA,NA,NA,NA,NA,NA,NA,NA,807,807,3,2554.8
3,unstructured,load,training,interference,NA,NA,NA,NA,NA,NA,NA,NA,NA,NA,NA,184,184,3,2399.8
3,unstructured,load,training,interference,NA,NA,NA,NA,NA,NA,NA,NA,NA,NA,NA,407,407,3,2914.3
3,unstructured,load,training,interference,NA,NA,NA,NA,NA,NA,NA,NA,NA,NA,NA,139,139,3,1917.1
3,unstructured,load,training,interference,NA,NA,NA,NA,NA,NA,NA,NA,NA,NA,NA,942,942,3,1973.8
3,unstructured,load,training,interference,NA,NA,NA,NA,NA,NA,NA,NA,NA,NA,NA,486,486,3,1730.7
3,unstructured,load,training,interference,NA,NA,NA,NA,NA,NA,NA,NA,NA,NA,NA,281,281,3,1802.1
3,unstructured,load,training,interference,NA,NA,NA,NA,NA,NA,NA,NA,NA,NA,NA,471,471,3,1929.6
3,unstructured,load,training,interference,NA,NA,NA,NA,NA,NA,NA,NA,NA,NA,NA,63,63,3,1754.1
3,unstructured,load,training,interference,NA,NA,NA,NA,NA,NA,NA,NA,NA,NA,NA,427,471,1,1949.4
3,unstructured,load,training,interference,NA,NA,NA,NA,NA,NA,NA,NA,NA,NA,NA,491,491,3,1220.6
3,unstructured,load,training,interference,NA,NA,NA,NA,NA,NA,NA,NA,NA,NA,NA,795,795,3,2448
3,unstructured,load,training,interference,NA,NA,NA,NA,NA,NA,NA,NA,NA,NA,NA,730,730,3,1141.7
3,unstructured,load,training,interference,NA,NA,NA,NA,NA,NA,NA,NA,NA,NA,NA,427,427,3,1438.9
3,unstructured,load,training,interference,NA,NA,NA,NA,NA,NA,NA,NA,NA,NA,NA,36,36,3,1194.3
3,unstructured,load,training,interference,NA,NA,NA,NA,NA,NA,NA,NA,NA,NA,NA,620,620,3,4322.9
3,unstructured,load,training,interference,NA,NA,NA,NA,NA,NA,NA,NA,NA,NA,NA,813,813,3,1423.9
3,unstructured,load,training,interference,NA,NA,NA,NA,NA,NA,NA,NA,NA,NA,NA,419,419,3,1553.9
3,unstructured,load,training,interference,NA,NA,NA,NA,NA,NA,NA,NA,NA,NA,NA,594,594,3,2544.4
3,unstructured,load,training,interference,NA,NA,NA,NA,NA,NA,NA,NA,NA,NA,NA,829,829,3,2137.9
3,unstructured,load,testing,NA,stim02,square,striped,popofa,fa,1,popofa,1,0,0,1,NA,NA,NA,5490
3,unstructured,load,testing,NA,stim04,triangle,checkerboard,lalado,do,1,lalani,0,2,0.333333333,0.666666667,NA,NA,NA,6663.9
3,unstructured,load,testing,NA,stim08,circle,striped,kikiva,va,1,likiki,0,3,0.5,0.5,NA,NA,NA,10300.1
3,unstructured,load,testing,NA,stim09,circle,spotted,kikilu,lu,1,pikilik,0,3,0.428571429,0.571428571,NA,NA,NA,11990.9
3,unstructured,load,testing,NA,stim05,triangle,striped,lalapa,pa,1,lolana,0,2,0.333333333,0.666666667,NA,NA,NA,7157.5
3,unstructured,load,testing,NA,stim07,circle,checkerboard,kikisu,su,1,likiki,0,3,0.5,0.5,NA,NA,NA,4899
3,unstructured,load,testing,NA,stim06,triangle,spotted,lalani,ni,1,tikitiki,0,7,0.875,0.125,NA,NA,NA,10123
3,unstructured,load,testing,NA,stim03,square,spotted,popori,ri,1,pofana,0,4,0.666666667,0.333333333,NA,NA,NA,8658.2
3,unstructured,load,testing,NA,stim01,square,checkerboard,popobi,bi,1,lalani,0,5,0.833333333,0.166666667,NA,NA,NA,5367.6
4,structured,no load,testing,NA,stim09,circle,spotted,lalafa,fa,0,landini,0,5,0.714285714,0.285714286,NA,NA,NA,7657.4
4,structured,no load,testing,NA,stim04,triangle,checkerboard,poponi,ni,0,popondo,0,2,0.285714286,0.714285714,NA,NA,NA,4537.8
4,structured,no load,testing,NA,stim05,triangle,striped,popodo,do,0,popondo,0,1,0.142857143,0.857142857,NA,NA,NA,4582
4,structured,no load,testing,NA,stim08,circle,striped,lalado,do,0,landini,0,5,0.714285714,0.285714286,NA,NA,NA,5993.8
4,structured,no load,testing,NA,stim06,triangle,spotted,popofa,fa,0,popondo,0,3,0.428571429,0.571428571,NA,NA,NA,5468.6
4,structured,no load,testing,NA,stim02,square,striped,tutudo,do,0,tutudo,1,0,0,1,NA,NA,NA,9177.8
4,structured,no load,testing,NA,stim01,square,checkerboard,tutuni,ni,0,tutuzz,0,2,0.333333333,0.666666667,NA,NA,NA,6356.7
4,structured,no load,testing,NA,stim03,square,spotted,tutufa,fa,0,tutuono,0,3,0.428571429,0.571428571,NA,NA,NA,7125.5
4,structured,no load,testing,NA,stim07,circle,checkerboard,lalani,ni,0,landini,0,3,0.428571429,0.571428571,NA,NA,NA,4850.1
5,structured,no load,testing,NA,stim09,circle,spotted,bebelu,lu,0,bebelu,1,0,0,1,NA,NA,NA,6213.6
5,structured,no load,testing,NA,stim02,square,striped,huhudo,do,0,huhudo,1,0,0,1,NA,NA,NA,15049.6
5,structured,no load,testing,NA,stim06,triangle,spotted,kikilu,lu,0,kikilu,1,0,0,1,NA,NA,NA,4537.9
5,structured,no load,testing,NA,stim08,circle,striped,bebedo,do,0,bebepa,0,2,0.333333333,0.666666667,NA,NA,NA,6306.1
5,structured,no load,testing,NA,stim07,circle,checkerboard,bebepa,pa,0,bebedo,0,2,0.333333333,0.666666667,NA,NA,NA,6779.1
5,structured,no load,testing,NA,stim05,triangle,striped,kikido,do,0,kikido,1,0,0,1,NA,NA,NA,7759.5
5,structured,no load,testing,NA,stim04,triangle,checkerboard,kikipa,pa,0,kikipa,1,0,0,1,NA,NA,NA,4372.9
5,structured,no load,testing,NA,stim03,square,spotted,huhulu,lu,0,huhulu,1,0,0,1,NA,NA,NA,9995
5,structured,no load,testing,NA,stim01,square,checkerboard,huhupa,pa,0,huhupa,1,0,0,1,NA,NA,NA,4388.1
6,partial,load,training,interference,NA,NA,NA,NA,NA,NA,NA,NA,NA,NA,NA,825,825,3,6822
6,partial,load,training,interference,NA,NA,NA,NA,NA,NA,NA,NA,NA,NA,NA,493,493,3,6152
6,partial,load,training,interference,NA,NA,NA,NA,NA,NA,NA,NA,NA,NA,NA,964,964,3,9699
6,partial,load,training,interference,NA,NA,NA,NA,NA,NA,NA,NA,NA,NA,NA,720,720,3,4494
6,partial,load,training,interference,NA,NA,NA,NA,NA,NA,NA,NA,NA,NA,NA,530,530,3,6189
6,partial,load,training,interference,NA,NA,NA,NA,NA,NA,NA,NA,NA,NA,NA,574,574,3,6312
6,partial,load,training,interference,NA,NA,NA,NA,NA,NA,NA,NA,NA,NA,NA,902,902,3,3884
6,partial,load,training,interference,NA,NA,NA,NA,NA,NA,NA,NA,NA,NA,NA,247,247,3,4496
6,partial,load,training,interference,NA,NA,NA,NA,NA,NA,NA,NA,NA,NA,NA,941,941,3,6686
6,partial,load,training,interference,NA,NA,NA,NA,NA,NA,NA,NA,NA,NA,NA,508,508,3,6840
6,partial,load,training,interference,NA,NA,NA,NA,NA,NA,NA,NA,NA,NA,NA,572,572,3,4465
6,partial,load,training,interference,NA,NA,NA,NA,NA,NA,NA,NA,NA,NA,NA,152,572,1,5426
6,partial,load,training,interference,NA,NA,NA,NA,NA,NA,NA,NA,NA,NA,NA,497,497,3,5241
6,partial,load,training,interference,NA,NA,NA,NA,NA,NA,NA,NA,NA,NA,NA,420,420,3,4164
6,partial,load,training,interference,NA,NA,NA,NA,NA,NA,NA,NA,NA,NA,NA,370,370,3,10759
6,partial,load,training,interference,NA,NA,NA,NA,NA,NA,NA,NA,NA,NA,NA,136,136,3,6252
6,partial,load,training,interference,NA,NA,NA,NA,NA,NA,NA,NA,NA,NA,NA,807,807,3,10346
6,partial,load,training,interference,NA,NA,NA,NA,NA,NA,NA,NA,NA,NA,NA,970,907,1,6159
6,partial,load,training,interference,NA,NA,NA,NA,NA,NA,NA,NA,NA,NA,NA,852,852,3,9349
6,partial,load,training,interference,NA,NA,NA,NA,NA,NA,NA,NA,NA,NA,NA,926,926,3,5636
6,partial,load,training,interference,NA,NA,NA,NA,NA,NA,NA,NA,NA,NA,NA,280,280,3,5199
6,partial,load,training,interference,NA,NA,NA,NA,NA,NA,NA,NA,NA,NA,NA,702,702,3,9114
6,partial,load,training,interference,NA,NA,NA,NA,NA,NA,NA,NA,NA,NA,NA,751,751,3,7901
6,partial,load,training,interference,NA,NA,NA,NA,NA,NA,NA,NA,NA,NA,NA,285,251,1,7136
6,partial,load,training,interference,NA,NA,NA,NA,NA,NA,NA,NA,NA,NA,NA,529,521,2,7871
6,partial,load,training,interference,NA,NA,NA,NA,NA,NA,NA,NA,NA,NA,NA,851,851,3,12988
6,partial,load,training,interference,NA,NA,NA,NA,NA,NA,NA,NA,NA,NA,NA,851,851,3,8164
6,partial,load,training,interference,NA,NA,NA,NA,NA,NA,NA,NA,NA,NA,NA,704,720,1,15021
6,partial,load,training,interference,NA,NA,NA,NA,NA,NA,NA,NA,NA,NA,NA,59,529,1,8742
6,partial,load,training,interference,NA,NA,NA,NA,NA,NA,NA,NA,NA,NA,NA,805,805,3,3873
6,partial,load,training,interference,NA,NA,NA,NA,NA,NA,NA,NA,NA,NA,NA,491,521,1,5754
6,partial,load,training,interference,NA,NA,NA,NA,NA,NA,NA,NA,NA,NA,NA,375,375,3,4323
6,partial,load,training,interference,NA,NA,NA,NA,NA,NA,NA,NA,NA,NA,NA,64,64,3,4400
6,partial,load,training,interference,NA,NA,NA,NA,NA,NA,NA,NA,NA,NA,NA,461,461,3,3855
6,partial,load,training,interference,NA,NA,NA,NA,NA,NA,NA,NA,NA,NA,NA,829,829,3,5138
6,partial,load,training,interference,NA,NA,NA,NA,NA,NA,NA,NA,NA,NA,NA,537,537,3,7887
6,partial,load,training,interference,NA,NA,NA,NA,NA,NA,NA,NA,NA,NA,NA,352,352,3,4932
6,partial,load,training,interference,NA,NA,NA,NA,NA,NA,NA,NA,NA,NA,NA,914,914,3,4273
6,partial,load,training,interference,NA,NA,NA,NA,NA,NA,NA,NA,NA,NA,NA,753,753,3,4357
6,partial,load,training,interference,NA,NA,NA,NA,NA,NA,NA,NA,NA,NA,NA,691,691,3,3797
6,partial,load,training,interference,NA,NA,NA,NA,NA,NA,NA,NA,NA,NA,NA,916,916,3,3883
6,partial,load,training,interference,NA,NA,NA,NA,NA,NA,NA,NA,NA,NA,NA,724,351,0,4617
6,partial,load,training,interference,NA,NA,NA,NA,NA,NA,NA,NA,NA,NA,NA,53,53,3,3905
6,partial,load,training,interference,NA,NA,NA,NA,NA,NA,NA,NA,NA,NA,NA,24,24,3,3756
6,partial,load,training,interference,NA,NA,NA,NA,NA,NA,NA,NA,NA,NA,NA,957,957,3,4669
6,partial,load,training,interference,NA,NA,NA,NA,NA,NA,NA,NA,NA,NA,NA,485,485,3,4725
6,partial,load,training,interference,NA,NA,NA,NA,NA,NA,NA,NA,NA,NA,NA,940,940,3,4743
6,partial,load,training,interference,NA,NA,NA,NA,NA,NA,NA,NA,NA,NA,NA,172,172,3,4201
6,partial,load,training,interference,NA,NA,NA,NA,NA,NA,NA,NA,NA,NA,NA,817,817,3,3651
6,partial,load,training,interference,NA,NA,NA,NA,NA,NA,NA,NA,NA,NA,NA,702,702,3,3799
6,partial,load,training,interference,NA,NA,NA,NA,NA,NA,NA,NA,NA,NA,NA,180,180,3,5947
6,partial,load,training,interference,NA,NA,NA,NA,NA,NA,NA,NA,NA,NA,NA,428,428,3,3870
6,partial,load,training,interference,NA,NA,NA,NA,NA,NA,NA,NA,NA,NA,NA,915,915,3,3864
6,partial,load,training,interference,NA,NA,NA,NA,NA,NA,NA,NA,NA,NA,NA,41,41,3,3299
6,partial,load,training,interference,NA,NA,NA,NA,NA,NA,NA,NA,NA,NA,NA,864,864,3,3884
6,partial,load,testing,NA,stim07,circle,checkerboard,popopa,pa,1,popopa,1,0,0,1,NA,NA,NA,28232
6,partial,load,testing,NA,stim06,triangle,spotted,momobi,bi,0,momobi,1,0,0,1,NA,NA,NA,11198
6,partial,load,testing,NA,stim04,triangle,checkerboard,momoni,ni,0,momoni,1,0,0,1,NA,NA,NA,9071
6,partial,load,testing,NA,stim01,square,checkerboard,tutuni,ni,0,tutuni,1,0,0,1,NA,NA,NA,25781
6,partial,load,testing,NA,stim05,triangle,striped,momodo,do,0,momoni,0,2,0.333333333,0.666666667,NA,NA,NA,18038
6,partial,load,testing,NA,stim08,circle,striped,popodo,do,0,popodo,1,0,0,1,NA,NA,NA,12733
6,partial,load,testing,NA,stim02,square,striped,tutudo,do,0,tutdo,0,1,0.166666667,0.833333333,NA,NA,NA,14265
6,partial,load,testing,NA,stim03,square,spotted,tutufa,fa,1,tutufa,1,0,0,1,NA,NA,NA,10896
6,partial,load,testing,NA,stim09,circle,spotted,popobi,bi,0,popona,0,2,0.333333333,0.666666667,NA,NA,NA,14445
7,unstructured,no load,testing,NA,stim04,triangle,checkerboard,tutuva,va,1,tutuva,1,0,0,1,NA,NA,NA,10663.8
7,unstructured,no load,testing,NA,stim02,square,striped,bebesu,su,1,bebosu,0,1,0.166666667,0.833333333,NA,NA,NA,8448
7,unstructured,no load,testing,NA,stim09,circle,spotted,lalari,ri,1,lalafa,0,2,0.333333333,0.666666667,NA,NA,NA,7461.7
7,unstructured,no load,testing,NA,stim08,circle,striped,lalafa,fa,1,lalabo,0,2,0.333333333,0.666666667,NA,NA,NA,5453.3
7,unstructured,no load,testing,NA,stim01,square,checkerboard,bebeni,ni,1,bebepo,0,2,0.333333333,0.666666667,NA,NA,NA,14102.5
7,unstructured,no load,testing,NA,stim03,square,spotted,bebepa,pa,1,bebano,0,3,0.5,0.5,NA,NA,NA,7838.8
7,unstructured,no load,testing,NA,stim07,circle,checkerboard,lalado,do,1,lalato,0,1,0.166666667,0.833333333,NA,NA,NA,9739.1
7,unstructured,no load,testing,NA,stim05,triangle,striped,tutulu,lu,1,tutula,0,1,0.166666667,0.833333333,NA,NA,NA,10598.7
7,unstructured,no load,testing,NA,stim06,triangle,spotted,tutubi,bi,1,tutaba,0,2,0.333333333,0.666666667,NA,NA,NA,6722.6
8,structured,load,training,interference,NA,NA,NA,NA,NA,NA,NA,NA,NA,NA,NA,931,931,3,3663.12
8,structured,load,training,interference,NA,NA,NA,NA,NA,NA,NA,NA,NA,NA,NA,539,539,3,3660.515
8,structured,load,training,interference,NA,NA,NA,NA,NA,NA,NA,NA,NA,NA,NA,251,251,3,4434.52
8,structured,load,training,interference,NA,NA,NA,NA,NA,NA,NA,NA,NA,NA,NA,314,414,2,3941.87
8,structured,load,training,interference,NA,NA,NA,NA,NA,NA,NA,NA,NA,NA,NA,973,973,3,4417.48
8,structured,load,training,interference,NA,NA,NA,NA,NA,NA,NA,NA,NA,NA,NA,382,382,3,2907.73
8,structured,load,training,interference,NA,NA,NA,NA,NA,NA,NA,NA,NA,NA,NA,381,381,3,2867.715
8,structured,load,training,interference,NA,NA,NA,NA,NA,NA,NA,NA,NA,NA,NA,816,361,0,3185.225
8,structured,load,training,interference,NA,NA,NA,NA,NA,NA,NA,NA,NA,NA,NA,596,596,3,3657.17
8,structured,load,training,interference,NA,NA,NA,NA,NA,NA,NA,NA,NA,NA,NA,250,250,3,2493.875
8,structured,load,training,interference,NA,NA,NA,NA,NA,NA,NA,NA,NA,NA,NA,952,952,3,4631.17
8,structured,load,training,interference,NA,NA,NA,NA,NA,NA,NA,NA,NA,NA,NA,604,654,2,2997.78
8,structured,load,training,interference,NA,NA,NA,NA,NA,NA,NA,NA,NA,NA,NA,249,249,3,2638.91
8,structured,load,training,interference,NA,NA,NA,NA,NA,NA,NA,NA,NA,NA,NA,58,58,3,4323.77
8,structured,load,training,interference,NA,NA,NA,NA,NA,NA,NA,NA,NA,NA,NA,206,206,3,2752.67
8,structured,load,training,interference,NA,NA,NA,NA,NA,NA,NA,NA,NA,NA,NA,958,958,3,4786.025
8,structured,load,training,interference,NA,NA,NA,NA,NA,NA,NA,NA,NA,NA,NA,259,259,3,2738.895
8,structured,load,training,interference,NA,NA,NA,NA,NA,NA,NA,NA,NA,NA,NA,275,275,3,2146.79
8,structured,load,training,interference,NA,NA,NA,NA,NA,NA,NA,NA,NA,NA,NA,479,479,3,3641.835
8,structured,load,training,interference,NA,NA,NA,NA,NA,NA,NA,NA,NA,NA,NA,264,264,3,3728.045
8,structured,load,training,interference,NA,NA,NA,NA,NA,NA,NA,NA,NA,NA,NA,706,706,3,3286.93
8,structured,load,training,interference,NA,NA,NA,NA,NA,NA,NA,NA,NA,NA,NA,480,480,3,2490.045
8,structured,load,training,interference,NA,NA,NA,NA,NA,NA,NA,NA,NA,NA,NA,390,390,3,2386.62
8,structured,load,training,interference,NA,NA,NA,NA,NA,NA,NA,NA,NA,NA,NA,720,720,3,2780.93
8,structured,load,training,interference,NA,NA,NA,NA,NA,NA,NA,NA,NA,NA,NA,260,262,2,1825.1
8,structured,load,training,interference,NA,NA,NA,NA,NA,NA,NA,NA,NA,NA,NA,79,79,3,2362.395
8,structured,load,training,interference,NA,NA,NA,NA,NA,NA,NA,NA,NA,NA,NA,738,738,3,3823.37
8,structured,load,training,interference,NA,NA,NA,NA,NA,NA,NA,NA,NA,NA,NA,24,24,3,3830.195
8,structured,load,training,interference,NA,NA,NA,NA,NA,NA,NA,NA,NA,NA,NA,285,285,3,3510.99
8,structured,load,training,interference,NA,NA,NA,NA,NA,NA,NA,NA,NA,NA,NA,937,937,3,4508.46
8,structured,load,training,interference,NA,NA,NA,NA,NA,NA,NA,NA,NA,NA,NA,627,727,2,2552.96
8,structured,load,training,interference,NA,NA,NA,NA,NA,NA,NA,NA,NA,NA,NA,137,137,3,2181.245
8,structured,load,training,interference,NA,NA,NA,NA,NA,NA,NA,NA,NA,NA,NA,26,26,3,2901.97
8,structured,load,training,interference,NA,NA,NA,NA,NA,NA,NA,NA,NA,NA,NA,627,628,2,1915.935
8,structured,load,training,interference,NA,NA,NA,NA,NA,NA,NA,NA,NA,NA,NA,804,804,3,2541
8,structured,load,training,interference,NA,NA,NA,NA,NA,NA,NA,NA,NA,NA,NA,270,270,3,4842.175
8,structured,load,training,interference,NA,NA,NA,NA,NA,NA,NA,NA,NA,NA,NA,842,842,3,3975.83
8,structured,load,training,interference,NA,NA,NA,NA,NA,NA,NA,NA,NA,NA,NA,406,406,3,2403.97
8,structured,load,training,interference,NA,NA,NA,NA,NA,NA,NA,NA,NA,NA,NA,952,952,3,3173.605
8,structured,load,training,interference,NA,NA,NA,NA,NA,NA,NA,NA,NA,NA,NA,962,962,3,2744.11
8,structured,load,training,interference,NA,NA,NA,NA,NA,NA,NA,NA,NA,NA,NA,605,605,3,2303.465
8,structured,load,training,interference,NA,NA,NA,NA,NA,NA,NA,NA,NA,NA,NA,802,802,3,2189.35
8,structured,load,training,interference,NA,NA,NA,NA,NA,NA,NA,NA,NA,NA,NA,716,716,3,2615.625
8,structured,load,training,interference,NA,NA,NA,NA,NA,NA,NA,NA,NA,NA,NA,203,203,3,2071.09
8,structured,load,training,interference,NA,NA,NA,NA,NA,NA,NA,NA,NA,NA,NA,375,375,3,2613.42
8,structured,load,training,interference,NA,NA,NA,NA,NA,NA,NA,NA,NA,NA,NA,86,86,3,3363.985
8,structured,load,training,interference,NA,NA,NA,NA,NA,NA,NA,NA,NA,NA,NA,738,738,3,2966.96
8,structured,load,training,interference,NA,NA,NA,NA,NA,NA,NA,NA,NA,NA,NA,240,240,3,2137.195
8,structured,load,training,interference,NA,NA,NA,NA,NA,NA,NA,NA,NA,NA,NA,392,392,3,2060.04
8,structured,load,training,interference,NA,NA,NA,NA,NA,NA,NA,NA,NA,NA,NA,638,638,3,3027.74
8,structured,load,training,interference,NA,NA,NA,NA,NA,NA,NA,NA,NA,NA,NA,573,573,3,2756.14
8,structured,load,training,interference,NA,NA,NA,NA,NA,NA,NA,NA,NA,NA,NA,286,276,2,2287.44
8,structured,load,training,interference,NA,NA,NA,NA,NA,NA,NA,NA,NA,NA,NA,902,902,3,2012.53
8,structured,load,training,interference,NA,NA,NA,NA,NA,NA,NA,NA,NA,NA,NA,906,906,3,2869.55
8,structured,load,training,interference,NA,NA,NA,NA,NA,NA,NA,NA,NA,NA,NA,603,603,3,3625.7
8,structured,load,testing,NA,stim09,circle,spotted,nenesu,su,0,nenesu,1,0,0,1,NA,NA,NA,7035.455
8,structured,load,testing,NA,stim07,circle,checkerboard,nenepa,pa,0,nenepa,1,0,0,1,NA,NA,NA,8715.58
8,structured,load,testing,NA,stim05,triangle,striped,kikibi,bi,0,kikibi,1,0,0,1,NA,NA,NA,4646.99
8,structured,load,testing,NA,stim08,circle,striped,nenebi,bi,0,nenebi,1,0,0,1,NA,NA,NA,4487.175
8,structured,load,testing,NA,stim04,triangle,checkerboard,kikipa,pa,0,kikipa,1,0,0,1,NA,NA,NA,3248.625
8,structured,load,testing,NA,stim01,square,checkerboard,momopa,pa,0,momopa,1,0,0,1,NA,NA,NA,3237.04
8,structured,load,testing,NA,stim02,square,striped,momobi,bi,0,momobi,1,0,0,1,NA,NA,NA,2826.905
8,structured,load,testing,NA,stim03,square,spotted,momosu,su,0,momosu,1,0,0,1,NA,NA,NA,5715.035
8,structured,load,testing,NA,stim06,triangle,spotted,kikisu,su,0,kikisu,1,0,0,1,NA,NA,NA,3743.05
9,structured,load,training,interference,NA,NA,NA,NA,NA,NA,NA,NA,NA,NA,NA,519,519,3,13588.9
9,structured,load,training,interference,NA,NA,NA,NA,NA,NA,NA,NA,NA,NA,NA,395,395,3,6310.3
9,structured,load,training,interference,NA,NA,NA,NA,NA,NA,NA,NA,NA,NA,NA,146,146,3,2831.7
9,structured,load,training,interference,NA,NA,NA,NA,NA,NA,NA,NA,NA,NA,NA,837,837,3,9707.5
9,structured,load,training,interference,NA,NA,NA,NA,NA,NA,NA,NA,NA,NA,NA,718,718,3,3091
9,structured,load,training,interference,NA,NA,NA,NA,NA,NA,NA,NA,NA,NA,NA,829,829,3,3641.7
9,structured,load,training,interference,NA,NA,NA,NA,NA,NA,NA,NA,NA,NA,NA,706,706,3,3969.8
9,structured,load,training,interference,NA,NA,NA,NA,NA,NA,NA,NA,NA,NA,NA,725,725,3,6446.4
9,structured,load,training,interference,NA,NA,NA,NA,NA,NA,NA,NA,NA,NA,NA,460,460,3,6169.9
9,structured,load,training,interference,NA,NA,NA,NA,NA,NA,NA,NA,NA,NA,NA,724,724,3,2764.7
9,structured,load,training,interference,NA,NA,NA,NA,NA,NA,NA,NA,NA,NA,NA,946,946,3,6442.9
9,structured,load,training,interference,NA,NA,NA,NA,NA,NA,NA,NA,NA,NA,NA,951,951,3,2894.4
9,structured,load,training,interference,NA,NA,NA,NA,NA,NA,NA,NA,NA,NA,NA,964,965,2,4350.1
9,structured,load,training,interference,NA,NA,NA,NA,NA,NA,NA,NA,NA,NA,NA,290,290,3,2509.6
9,structured,load,training,interference,NA,NA,NA,NA,NA,NA,NA,NA,NA,NA,NA,285,285,3,1281.7
9,structured,load,training,interference,NA,NA,NA,NA,NA,NA,NA,NA,NA,NA,NA,169,169,3,1474.8
9,structured,load,training,interference,NA,NA,NA,NA,NA,NA,NA,NA,NA,NA,NA,925,925,3,6013.7
9,structured,load,training,interference,NA,NA,NA,NA,NA,NA,NA,NA,NA,NA,NA,375,375,3,3935.7
9,structured,load,training,interference,NA,NA,NA,NA,NA,NA,NA,NA,NA,NA,NA,361,361,3,2375.5
9,structured,load,training,interference,NA,NA,NA,NA,NA,NA,NA,NA,NA,NA,NA,157,157,3,3695.3
9,structured,load,training,interference,NA,NA,NA,NA,NA,NA,NA,NA,NA,NA,NA,852,297,0,7420.3
9,structured,load,training,interference,NA,NA,NA,NA,NA,NA,NA,NA,NA,NA,NA,417,417,3,2609.2
9,structured,load,training,interference,NA,NA,NA,NA,NA,NA,NA,NA,NA,NA,NA,846,846,3,2660.2
9,structured,load,training,interference,NA,NA,NA,NA,NA,NA,NA,NA,NA,NA,NA,753,753,3,1236.8
9,structured,load,training,interference,NA,NA,NA,NA,NA,NA,NA,NA,NA,NA,NA,536,536,3,1105.9
9,structured,load,training,interference,NA,NA,NA,NA,NA,NA,NA,NA,NA,NA,NA,371,371,3,1381.2
9,structured,load,training,interference,NA,NA,NA,NA,NA,NA,NA,NA,NA,NA,NA,816,816,3,1262.3
9,structured,load,training,interference,NA,NA,NA,NA,NA,NA,NA,NA,NA,NA,NA,259,25,2,3401.6
9,structured,load,training,interference,NA,NA,NA,NA,NA,NA,NA,NA,NA,NA,NA,472,292,1,4845.1
9,structured,load,training,interference,NA,NA,NA,NA,NA,NA,NA,NA,NA,NA,NA,35,35,3,2353.3
9,structured,load,training,interference,NA,NA,NA,NA,NA,NA,NA,NA,NA,NA,NA,805,805,3,3193.5
9,structured,load,training,interference,NA,NA,NA,NA,NA,NA,NA,NA,NA,NA,NA,624,624,3,1927.7
9,structured,load,training,interference,NA,NA,NA,NA,NA,NA,NA,NA,NA,NA,NA,928,928,3,1520.5
9,structured,load,training,interference,NA,NA,NA,NA,NA,NA,NA,NA,NA,NA,NA,196,196,3,1657.4
9,structured,load,training,interference,NA,NA,NA,NA,NA,NA,NA,NA,NA,NA,NA,813,813,3,3231.5
9,structured,load,training,interference,NA,NA,NA,NA,NA,NA,NA,NA,NA,NA,NA,92,92,3,1588.7
9,structured,load,training,interference,NA,NA,NA,NA,NA,NA,NA,NA,NA,NA,NA,863,863,3,1311.7
9,structured,load,training,interference,NA,NA,NA,NA,NA,NA,NA,NA,NA,NA,NA,470,470,3,2543.2
9,structured,load,training,interference,NA,NA,NA,NA,NA,NA,NA,NA,NA,NA,NA,913,470,0,2610.2
9,structured,load,training,interference,NA,NA,NA,NA,NA,NA,NA,NA,NA,NA,NA,863,863,3,3306.3
9,structured,load,training,interference,NA,NA,NA,NA,NA,NA,NA,NA,NA,NA,NA,613,613,3,2011.6
9,structured,load,training,interference,NA,NA,NA,NA,NA,NA,NA,NA,NA,NA,NA,197,197,3,2628.2
9,structured,load,training,interference,NA,NA,NA,NA,NA,NA,NA,NA,NA,NA,NA,49,45,2,2252
9,structured,load,training,interference,NA,NA,NA,NA,NA,NA,NA,NA,NA,NA,NA,47,47,3,1891.5
9,structured,load,training,interference,NA,NA,NA,NA,NA,NA,NA,NA,NA,NA,NA,281,281,3,3435.5
9,structured,load,training,interference,NA,NA,NA,NA,NA,NA,NA,NA,NA,NA,NA,147,147,3,1460.3
9,structured,load,training,interference,NA,NA,NA,NA,NA,NA,NA,NA,NA,NA,NA,750,750,3,2056.8
9,structured,load,training,interference,NA,NA,NA,NA,NA,NA,NA,NA,NA,NA,NA,269,269,3,1726.3
9,structured,load,training,interference,NA,NA,NA,NA,NA,NA,NA,NA,NA,NA,NA,507,507,3,1309.1
9,structured,load,training,interference,NA,NA,NA,NA,NA,NA,NA,NA,NA,NA,NA,140,140,3,3015.1
9,structured,load,training,interference,NA,NA,NA,NA,NA,NA,NA,NA,NA,NA,NA,806,806,3,2051.7
9,structured,load,training,interference,NA,NA,NA,NA,NA,NA,NA,NA,NA,NA,NA,208,208,3,3935.3
9,structured,load,training,interference,NA,NA,NA,NA,NA,NA,NA,NA,NA,NA,NA,386,386,3,2346
9,structured,load,training,interference,NA,NA,NA,NA,NA,NA,NA,NA,NA,NA,NA,957,957,3,1807.3
9,structured,load,training,interference,NA,NA,NA,NA,NA,NA,NA,NA,NA,NA,NA,607,607,3,2159.1
9,structured,load,testing,NA,stim06,triangle,spotted,bebeni,ni,0,bebeni,1,0,0,1,NA,NA,NA,13965
9,structured,load,testing,NA,stim03,square,spotted,neneni,ni,0,neneni,1,0,0,1,NA,NA,NA,10808.6
9,structured,load,testing,NA,stim09,circle,spotted,tutuni,ni,0,tutuni,1,0,0,1,NA,NA,NA,8936.8
9,structured,load,testing,NA,stim04,triangle,checkerboard,bebepa,pa,0,bebepa,1,0,0,1,NA,NA,NA,5635.5
9,structured,load,testing,NA,stim07,circle,checkerboard,tutupa,pa,0,tutupa,1,0,0,1,NA,NA,NA,5802.9
9,structured,load,testing,NA,stim01,square,checkerboard,nenepa,pa,0,nenepa,1,0,0,1,NA,NA,NA,9017.8
9,structured,load,testing,NA,stim02,square,striped,nenesu,su,0,nenesu,1,0,0,1,NA,NA,NA,9771.1
9,structured,load,testing,NA,stim05,triangle,striped,bebesu,su,0,bebesu,1,0,0,1,NA,NA,NA,8813.7
9,structured,load,testing,NA,stim08,circle,striped,tutusu,su,0,tutusu,1,0,0,1,NA,NA,NA,7534.7
10,structured,load,training,interference,NA,NA,NA,NA,NA,NA,NA,NA,NA,NA,NA,728,728,3,6886
10,structured,load,training,interference,NA,NA,NA,NA,NA,NA,NA,NA,NA,NA,NA,506,506,3,8219.3
10,structured,load,training,interference,NA,NA,NA,NA,NA,NA,NA,NA,NA,NA,NA,748,748,3,3204.9
10,structured,load,training,interference,NA,NA,NA,NA,NA,NA,NA,NA,NA,NA,NA,426,426,3,3490.9
10,structured,load,training,interference,NA,NA,NA,NA,NA,NA,NA,NA,NA,NA,NA,751,745,1,2713.3
10,structured,load,training,interference,NA,NA,NA,NA,NA,NA,NA,NA,NA,NA,NA,350,724,0,5295.8
10,structured,load,training,interference,NA,NA,NA,NA,NA,NA,NA,NA,NA,NA,NA,519,529,2,2758.6
10,structured,load,training,interference,NA,NA,NA,NA,NA,NA,NA,NA,NA,NA,NA,937,937,3,3296.6
10,structured,load,training,interference,NA,NA,NA,NA,NA,NA,NA,NA,NA,NA,NA,308,308,3,3763.5
10,structured,load,training,interference,NA,NA,NA,NA,NA,NA,NA,NA,NA,NA,NA,361,361,3,3281.9
10,structured,load,training,interference,NA,NA,NA,NA,NA,NA,NA,NA,NA,NA,NA,903,903,3,4811.2
10,structured,load,training,interference,NA,NA,NA,NA,NA,NA,NA,NA,NA,NA,NA,302,302,3,3468.2
10,structured,load,training,interference,NA,NA,NA,NA,NA,NA,NA,NA,NA,NA,NA,615,615,3,3798.7
10,structured,load,training,interference,NA,NA,NA,NA,NA,NA,NA,NA,NA,NA,NA,791,651,1,2755.4
10,structured,load,training,interference,NA,NA,NA,NA,NA,NA,NA,NA,NA,NA,NA,207,627,1,3112.4
10,structured,load,training,interference,NA,NA,NA,NA,NA,NA,NA,NA,NA,NA,NA,580,580,3,2834.4
10,structured,load,training,interference,NA,NA,NA,NA,NA,NA,NA,NA,NA,NA,NA,172,523,0,5347
10,structured,load,training,interference,NA,NA,NA,NA,NA,NA,NA,NA,NA,NA,NA,297,297,3,3579.9
10,structured,load,training,interference,NA,NA,NA,NA,NA,NA,NA,NA,NA,NA,NA,52,52,3,4844.9
10,structured,load,training,interference,NA,NA,NA,NA,NA,NA,NA,NA,NA,NA,NA,592,592,3,3447.5
10,structured,load,training,interference,NA,NA,NA,NA,NA,NA,NA,NA,NA,NA,NA,419,429,2,4528.5
10,structured,load,training,interference,NA,NA,NA,NA,NA,NA,NA,NA,NA,NA,NA,902,902,3,4892.3
10,structured,load,training,interference,NA,NA,NA,NA,NA,NA,NA,NA,NA,NA,NA,253,253,3,5616.3
10,structured,load,training,interference,NA,NA,NA,NA,NA,NA,NA,NA,NA,NA,NA,593,593,3,4611.6
10,structured,load,training,interference,NA,NA,NA,NA,NA,NA,NA,NA,NA,NA,NA,317,627,1,6102.9
10,structured,load,training,interference,NA,NA,NA,NA,NA,NA,NA,NA,NA,NA,NA,492,627,0,5064.9
10,structured,load,training,interference,NA,NA,NA,NA,NA,NA,NA,NA,NA,NA,NA,968,960,2,4438.5
10,structured,load,training,interference,NA,NA,NA,NA,NA,NA,NA,NA,NA,NA,NA,62,62,3,5702.8
10,structured,load,training,interference,NA,NA,NA,NA,NA,NA,NA,NA,NA,NA,NA,170,170,3,4259.4
10,structured,load,training,interference,NA,NA,NA,NA,NA,NA,NA,NA,NA,NA,NA,752,752,3,4161.5
10,structured,load,training,interference,NA,NA,NA,NA,NA,NA,NA,NA,NA,NA,NA,251,251,3,5585.2
10,structured,load,training,interference,NA,NA,NA,NA,NA,NA,NA,NA,NA,NA,NA,709,709,3,3278.5
10,structured,load,training,interference,NA,NA,NA,NA,NA,NA,NA,NA,NA,NA,NA,152,152,3,3613
10,structured,load,training,interference,NA,NA,NA,NA,NA,NA,NA,NA,NA,NA,NA,583,583,3,3285.3
10,structured,load,training,interference,NA,NA,NA,NA,NA,NA,NA,NA,NA,NA,NA,718,752,1,2991.1
10,structured,load,training,interference,NA,NA,NA,NA,NA,NA,NA,NA,NA,NA,NA,384,384,3,2868.6
10,structured,load,training,interference,NA,NA,NA,NA,NA,NA,NA,NA,NA,NA,NA,502,582,2,2551.7
10,structured,load,training,interference,NA,NA,NA,NA,NA,NA,NA,NA,NA,NA,NA,136,156,2,5532.6
10,structured,load,training,interference,NA,NA,NA,NA,NA,NA,NA,NA,NA,NA,NA,157,157,3,4604.6
10,structured,load,training,interference,NA,NA,NA,NA,NA,NA,NA,NA,NA,NA,NA,526,526,3,5380.8
10,structured,load,training,interference,NA,NA,NA,NA,NA,NA,NA,NA,NA,NA,NA,926,526,2,3611.8
10,structured,load,training,interference,NA,NA,NA,NA,NA,NA,NA,NA,NA,NA,NA,824,824,3,6426.6
10,structured,load,training,interference,NA,NA,NA,NA,NA,NA,NA,NA,NA,NA,NA,274,274,3,3665.3
10,structured,load,training,interference,NA,NA,NA,NA,NA,NA,NA,NA,NA,NA,NA,817,125,0,5436.2
10,structured,load,training,interference,NA,NA,NA,NA,NA,NA,NA,NA,NA,NA,NA,168,168,3,3318
10,structured,load,training,interference,NA,NA,NA,NA,NA,NA,NA,NA,NA,NA,NA,627,627,3,2743.8
10,structured,load,training,interference,NA,NA,NA,NA,NA,NA,NA,NA,NA,NA,NA,463,467,2,4534.9
10,structured,load,training,interference,NA,NA,NA,NA,NA,NA,NA,NA,NA,NA,NA,58,58,3,3804.6
10,structured,load,training,interference,NA,NA,NA,NA,NA,NA,NA,NA,NA,NA,NA,908,908,3,3855.2
10,structured,load,training,interference,NA,NA,NA,NA,NA,NA,NA,NA,NA,NA,NA,586,586,3,3098.2
10,structured,load,training,interference,NA,NA,NA,NA,NA,NA,NA,NA,NA,NA,NA,205,205,3,3880.8
10,structured,load,training,interference,NA,NA,NA,NA,NA,NA,NA,NA,NA,NA,NA,628,628,3,2927.9
10,structured,load,training,interference,NA,NA,NA,NA,NA,NA,NA,NA,NA,NA,NA,148,148,3,3542.4
10,structured,load,training,interference,NA,NA,NA,NA,NA,NA,NA,NA,NA,NA,NA,580,58,0,3194.5
10,structured,load,training,interference,NA,NA,NA,NA,NA,NA,NA,NA,NA,NA,NA,837,837,3,3114.1
10,structured,load,testing,NA,stim02,square,striped,momori,ri,0,momri,0,1,0.166666667,0.833333333,NA,NA,NA,18255.5
10,structured,load,testing,NA,stim07,circle,checkerboard,tutupa,pa,0,tutpe,0,2,0.333333333,0.666666667,NA,NA,NA,12620.2
10,structured,load,testing,NA,stim06,triangle,spotted,bebesu,su,0,bebesu,1,0,0,1,NA,NA,NA,10055.6
10,structured,load,testing,NA,stim09,circle,spotted,tutusu,su,0,tutsu,0,1,0.166666667,0.833333333,NA,NA,NA,9201
10,structured,load,testing,NA,stim04,triangle,checkerboard,bebepa,pa,0,bebepe,0,1,0.166666667,0.833333333,NA,NA,NA,25630.2
10,structured,load,testing,NA,stim08,circle,striped,tuturi,ri,0,tuturi,1,0,0,1,NA,NA,NA,38544.5
10,structured,load,testing,NA,stim05,triangle,striped,beberi,ri,0,beberi,1,0,0,1,NA,NA,NA,10388.6
10,structured,load,testing,NA,stim03,square,spotted,momosu,su,0,momsu,0,1,0.166666667,0.833333333,NA,NA,NA,11815.1
10,structured,load,testing,NA,stim01,square,checkerboard,momopa,pa,0,mompe,0,2,0.333333333,0.666666667,NA,NA,NA,25818.7
11,unstructured,load,training,interference,NA,NA,NA,NA,NA,NA,NA,NA,NA,NA,NA,583,583,3,5745.9
11,unstructured,load,training,interference,NA,NA,NA,NA,NA,NA,NA,NA,NA,NA,NA,406,406,3,4983.8
11,unstructured,load,training,interference,NA,NA,NA,NA,NA,NA,NA,NA,NA,NA,NA,860,406,0,7518.1
11,unstructured,load,training,interference,NA,NA,NA,NA,NA,NA,NA,NA,NA,NA,NA,413,413,3,4440.5
11,unstructured,load,training,interference,NA,NA,NA,NA,NA,NA,NA,NA,NA,NA,NA,317,317,3,6686.9
11,unstructured,load,training,interference,NA,NA,NA,NA,NA,NA,NA,NA,NA,NA,NA,208,218,2,5029
11,unstructured,load,training,interference,NA,NA,NA,NA,NA,NA,NA,NA,NA,NA,NA,195,195,3,4187.5
11,unstructured,load,training,interference,NA,NA,NA,NA,NA,NA,NA,NA,NA,NA,NA,53,53,3,4158.6
11,unstructured,load,training,interference,NA,NA,NA,NA,NA,NA,NA,NA,NA,NA,NA,739,739,3,4783.2
11,unstructured,load,training,interference,NA,NA,NA,NA,NA,NA,NA,NA,NA,NA,NA,702,702,3,3823.1
11,unstructured,load,training,interference,NA,NA,NA,NA,NA,NA,NA,NA,NA,NA,NA,294,294,3,4330
11,unstructured,load,training,interference,NA,NA,NA,NA,NA,NA,NA,NA,NA,NA,NA,280,284,2,4410.7
11,unstructured,load,training,interference,NA,NA,NA,NA,NA,NA,NA,NA,NA,NA,NA,852,852,3,4256.2
11,unstructured,load,training,interference,NA,NA,NA,NA,NA,NA,NA,NA,NA,NA,NA,927,927,3,4365.3
11,unstructured,load,training,interference,NA,NA,NA,NA,NA,NA,NA,NA,NA,NA,NA,316,316,3,5116.1
11,unstructured,load,training,interference,NA,NA,NA,NA,NA,NA,NA,NA,NA,NA,NA,58,58,3,4834.7
11,unstructured,load,training,interference,NA,NA,NA,NA,NA,NA,NA,NA,NA,NA,NA,403,453,2,4494.9
11,unstructured,load,training,interference,NA,NA,NA,NA,NA,NA,NA,NA,NA,NA,NA,917,917,3,4173
11,unstructured,load,training,interference,NA,NA,NA,NA,NA,NA,NA,NA,NA,NA,NA,918,918,3,4086
11,unstructured,load,training,interference,NA,NA,NA,NA,NA,NA,NA,NA,NA,NA,NA,706,706,3,5115.1
11,unstructured,load,training,interference,NA,NA,NA,NA,NA,NA,NA,NA,NA,NA,NA,150,150,3,4345.2
11,unstructured,load,training,interference,NA,NA,NA,NA,NA,NA,NA,NA,NA,NA,NA,251,251,3,4747.8
11,unstructured,load,training,interference,NA,NA,NA,NA,NA,NA,NA,NA,NA,NA,NA,642,642,3,4703.6
11,unstructured,load,training,interference,NA,NA,NA,NA,NA,NA,NA,NA,NA,NA,NA,468,468,3,8187.5
11,unstructured,load,training,interference,NA,NA,NA,NA,NA,NA,NA,NA,NA,NA,NA,368,368,3,5373.9
11,unstructured,load,training,interference,NA,NA,NA,NA,NA,NA,NA,NA,NA,NA,NA,819,819,3,4306.5
11,unstructured,load,training,interference,NA,NA,NA,NA,NA,NA,NA,NA,NA,NA,NA,631,631,3,4294.4
11,unstructured,load,training,interference,NA,NA,NA,NA,NA,NA,NA,NA,NA,NA,NA,482,482,3,5038.4
11,unstructured,load,training,interference,NA,NA,NA,NA,NA,NA,NA,NA,NA,NA,NA,940,940,3,4951
11,unstructured,load,training,interference,NA,NA,NA,NA,NA,NA,NA,NA,NA,NA,NA,951,951,3,4421.9
11,unstructured,load,training,interference,NA,NA,NA,NA,NA,NA,NA,NA,NA,NA,NA,759,759,3,4453.8
11,unstructured,load,training,interference,NA,NA,NA,NA,NA,NA,NA,NA,NA,NA,NA,483,483,3,5204.1
11,unstructured,load,training,interference,NA,NA,NA,NA,NA,NA,NA,NA,NA,NA,NA,862,862,3,6141.8
11,unstructured,load,training,interference,NA,NA,NA,NA,NA,NA,NA,NA,NA,NA,NA,380,380,3,5737.9
11,unstructured,load,training,interference,NA,NA,NA,NA,NA,NA,NA,NA,NA,NA,NA,170,170,3,4578.8
11,unstructured,load,training,interference,NA,NA,NA,NA,NA,NA,NA,NA,NA,NA,NA,283,283,3,6166.3
11,unstructured,load,training,interference,NA,NA,NA,NA,NA,NA,NA,NA,NA,NA,NA,904,406,1,6644.7
11,unstructured,load,training,interference,NA,NA,NA,NA,NA,NA,NA,NA,NA,NA,NA,620,620,3,4387.9
11,unstructured,load,training,interference,NA,NA,NA,NA,NA,NA,NA,NA,NA,NA,NA,271,271,3,5190.3
11,unstructured,load,training,interference,NA,NA,NA,NA,NA,NA,NA,NA,NA,NA,NA,485,485,3,6817.7
11,unstructured,load,training,interference,NA,NA,NA,NA,NA,NA,NA,NA,NA,NA,NA,429,429,3,5500.3
11,unstructured,load,training,interference,NA,NA,NA,NA,NA,NA,NA,NA,NA,NA,NA,359,359,3,5665.9
11,unstructured,load,training,interference,NA,NA,NA,NA,NA,NA,NA,NA,NA,NA,NA,138,138,3,5113.5
11,unstructured,load,training,interference,NA,NA,NA,NA,NA,NA,NA,NA,NA,NA,NA,602,602,3,4952.9
11,unstructured,load,training,interference,NA,NA,NA,NA,NA,NA,NA,NA,NA,NA,NA,479,279,2,4675.1
11,unstructured,load,training,interference,NA,NA,NA,NA,NA,NA,NA,NA,NA,NA,NA,704,789,1,5501.1
11,unstructured,load,training,interference,NA,NA,NA,NA,NA,NA,NA,NA,NA,NA,NA,840,840,3,4810.1
11,unstructured,load,training,interference,NA,NA,NA,NA,NA,NA,NA,NA,NA,NA,NA,53,583,1,4716.5
11,unstructured,load,training,interference,NA,NA,NA,NA,NA,NA,NA,NA,NA,NA,NA,503,503,3,5068.9
11,unstructured,load,training,interference,NA,NA,NA,NA,NA,NA,NA,NA,NA,NA,NA,381,381,3,5554.4
11,unstructured,load,training,interference,NA,NA,NA,NA,NA,NA,NA,NA,NA,NA,NA,791,791,3,5023.9
11,unstructured,load,training,interference,NA,NA,NA,NA,NA,NA,NA,NA,NA,NA,NA,517,581,1,5395.9
11,unstructured,load,training,interference,NA,NA,NA,NA,NA,NA,NA,NA,NA,NA,NA,627,627,3,5934.9
11,unstructured,load,training,interference,NA,NA,NA,NA,NA,NA,NA,NA,NA,NA,NA,947,947,3,5934.5
11,unstructured,load,training,interference,NA,NA,NA,NA,NA,NA,NA,NA,NA,NA,NA,203,947,0,5911.2
11,unstructured,load,testing,NA,stim01,square,checkerboard,gagado,do,1,gapaga,0,3,0.5,0.5,NA,NA,NA,5706.8
11,unstructured,load,testing,NA,stim04,triangle,checkerboard,tutusu,su,1,totulu,0,2,0.333333333,0.666666667,NA,NA,NA,6281.5
11,unstructured,load,testing,NA,stim06,triangle,spotted,tuturi,ri,1,gapchi,0,5,0.833333333,0.166666667,NA,NA,NA,6873.9
11,unstructured,load,testing,NA,stim03,square,spotted,gagapa,pa,1,totulio,0,7,1,0,NA,NA,NA,12403.2
11,unstructured,load,testing,NA,stim09,circle,spotted,momofa,fa,1,gapaga,0,5,0.833333333,0.166666667,NA,NA,NA,5161.7
11,unstructured,load,testing,NA,stim05,triangle,striped,tutulu,lu,1,totulu,0,1,0.166666667,0.833333333,NA,NA,NA,5117.8
11,unstructured,load,testing,NA,stim02,square,striped,gagabi,bi,1,momolo,0,6,1,0,NA,NA,NA,8063.4
11,unstructured,load,testing,NA,stim08,circle,striped,momoni,ni,1,totulu,0,5,0.833333333,0.166666667,NA,NA,NA,5686.5
11,unstructured,load,testing,NA,stim07,circle,checkerboard,momova,va,1,momolo,0,2,0.333333333,0.666666667,NA,NA,NA,4220.7
12,structured,load,training,interference,NA,NA,NA,NA,NA,NA,NA,NA,NA,NA,NA,248,248,3,5107.8
12,structured,load,training,interference,NA,NA,NA,NA,NA,NA,NA,NA,NA,NA,NA,358,358,3,8084.2
12,structured,load,training,interference,NA,NA,NA,NA,NA,NA,NA,NA,NA,NA,NA,293,293,3,3886
12,structured,load,training,interference,NA,NA,NA,NA,NA,NA,NA,NA,NA,NA,NA,968,968,3,5020.3
12,structured,load,training,interference,NA,NA,NA,NA,NA,NA,NA,NA,NA,NA,NA,138,138,3,4909.3
12,structured,load,training,interference,NA,NA,NA,NA,NA,NA,NA,NA,NA,NA,NA,618,618,3,4220.3
12,structured,load,training,interference,NA,NA,NA,NA,NA,NA,NA,NA,NA,NA,NA,846,846,3,4459.6
12,structured,load,training,interference,NA,NA,NA,NA,NA,NA,NA,NA,NA,NA,NA,137,137,3,5825.9
12,structured,load,training,interference,NA,NA,NA,NA,NA,NA,NA,NA,NA,NA,NA,705,705,3,3382.8
12,structured,load,training,interference,NA,NA,NA,NA,NA,NA,NA,NA,NA,NA,NA,517,517,3,4744.6
12,structured,load,training,interference,NA,NA,NA,NA,NA,NA,NA,NA,NA,NA,NA,302,310,1,5039.2
12,structured,load,training,interference,NA,NA,NA,NA,NA,NA,NA,NA,NA,NA,NA,204,204,3,2859.8
12,structured,load,training,interference,NA,NA,NA,NA,NA,NA,NA,NA,NA,NA,NA,149,149,3,4293.3
12,structured,load,training,interference,NA,NA,NA,NA,NA,NA,NA,NA,NA,NA,NA,319,319,3,4414.7
12,structured,load,training,interference,NA,NA,NA,NA,NA,NA,NA,NA,NA,NA,NA,736,736,3,5115.3
12,structured,load,training,interference,NA,NA,NA,NA,NA,NA,NA,NA,NA,NA,NA,137,137,3,4029.2
12,structured,load,training,interference,NA,NA,NA,NA,NA,NA,NA,NA,NA,NA,NA,817,817,3,3957.4
12,structured,load,training,interference,NA,NA,NA,NA,NA,NA,NA,NA,NA,NA,NA,392,397,2,3924.1
12,structured,load,training,interference,NA,NA,NA,NA,NA,NA,NA,NA,NA,NA,NA,362,362,3,4434.1
12,structured,load,training,interference,NA,NA,NA,NA,NA,NA,NA,NA,NA,NA,NA,175,175,3,3606.5
12,structured,load,training,interference,NA,NA,NA,NA,NA,NA,NA,NA,NA,NA,NA,386,386,3,2635.1
12,structured,load,training,interference,NA,NA,NA,NA,NA,NA,NA,NA,NA,NA,NA,142,142,3,8592.6
12,structured,load,training,interference,NA,NA,NA,NA,NA,NA,NA,NA,NA,NA,NA,357,357,3,3360
12,structured,load,training,interference,NA,NA,NA,NA,NA,NA,NA,NA,NA,NA,NA,258,258,3,3045.5
12,structured,load,training,interference,NA,NA,NA,NA,NA,NA,NA,NA,NA,NA,NA,938,938,3,4014.8
12,structured,load,training,interference,NA,NA,NA,NA,NA,NA,NA,NA,NA,NA,NA,69,179,1,5840.5
12,structured,load,training,interference,NA,NA,NA,NA,NA,NA,NA,NA,NA,NA,NA,91,91,3,5793.2
12,structured,load,training,interference,NA,NA,NA,NA,NA,NA,NA,NA,NA,NA,NA,583,583,3,4030.8
12,structured,load,training,interference,NA,NA,NA,NA,NA,NA,NA,NA,NA,NA,NA,758,758,3,3124.9
12,structured,load,training,interference,NA,NA,NA,NA,NA,NA,NA,NA,NA,NA,NA,749,749,3,3668.3
12,structured,load,training,interference,NA,NA,NA,NA,NA,NA,NA,NA,NA,NA,NA,702,702,3,5813.3
12,structured,load,training,interference,NA,NA,NA,NA,NA,NA,NA,NA,NA,NA,NA,839,839,3,5448.3
12,structured,load,training,interference,NA,NA,NA,NA,NA,NA,NA,NA,NA,NA,NA,530,530,3,2019.7
12,structured,load,training,interference,NA,NA,NA,NA,NA,NA,NA,NA,NA,NA,NA,920,920,3,2956
12,structured,load,training,interference,NA,NA,NA,NA,NA,NA,NA,NA,NA,NA,NA,749,749,3,4488.3
12,structured,load,training,interference,NA,NA,NA,NA,NA,NA,NA,NA,NA,NA,NA,315,739,0,5113.3
12,structured,load,training,interference,NA,NA,NA,NA,NA,NA,NA,NA,NA,NA,NA,951,95,2,5322.1
12,structured,load,training,interference,NA,NA,NA,NA,NA,NA,NA,NA,NA,NA,NA,283,283,3,3310
12,structured,load,training,interference,NA,NA,NA,NA,NA,NA,NA,NA,NA,NA,NA,486,486,3,3228.1
12,structured,load,training,interference,NA,NA,NA,NA,NA,NA,NA,NA,NA,NA,NA,471,471,3,3983.8
12,structured,load,training,interference,NA,NA,NA,NA,NA,NA,NA,NA,NA,NA,NA,753,753,3,7838.4
12,structured,load,training,interference,NA,NA,NA,NA,NA,NA,NA,NA,NA,NA,NA,809,809,3,3088.8
12,structured,load,training,interference,NA,NA,NA,NA,NA,NA,NA,NA,NA,NA,NA,718,718,3,13510.1
12,structured,load,training,interference,NA,NA,NA,NA,NA,NA,NA,NA,NA,NA,NA,418,418,3,5277.4
12,structured,load,training,interference,NA,NA,NA,NA,NA,NA,NA,NA,NA,NA,NA,38,38,3,3033.7
12,structured,load,training,interference,NA,NA,NA,NA,NA,NA,NA,NA,NA,NA,NA,170,170,3,2131.7
12,structured,load,training,interference,NA,NA,NA,NA,NA,NA,NA,NA,NA,NA,NA,263,263,3,2816.6
12,structured,load,training,interference,NA,NA,NA,NA,NA,NA,NA,NA,NA,NA,NA,719,719,3,3053
12,structured,load,training,interference,NA,NA,NA,NA,NA,NA,NA,NA,NA,NA,NA,641,641,3,2579.6
12,structured,load,training,interference,NA,NA,NA,NA,NA,NA,NA,NA,NA,NA,NA,827,827,3,4655.7
12,structured,load,training,interference,NA,NA,NA,NA,NA,NA,NA,NA,NA,NA,NA,950,817,0,2850.2
12,structured,load,training,interference,NA,NA,NA,NA,NA,NA,NA,NA,NA,NA,NA,806,806,3,2867.8
12,structured,load,training,interference,NA,NA,NA,NA,NA,NA,NA,NA,NA,NA,NA,390,390,3,4751.8
12,structured,load,training,interference,NA,NA,NA,NA,NA,NA,NA,NA,NA,NA,NA,841,841,3,3429.8
12,structured,load,training,interference,NA,NA,NA,NA,NA,NA,NA,NA,NA,NA,NA,607,607,3,5241.7
12,structured,load,testing,NA,stim03,square,spotted,poponi,ni,0,lalani,0,4,0.666666667,0.333333333,NA,NA,NA,8108.6
12,structured,load,testing,NA,stim02,square,striped,popobi,bi,0,zzzzzz,0,6,1,0,NA,NA,NA,6029.6
12,structured,load,testing,NA,stim04,triangle,checkerboard,lalalu,lu,0,oblonga,0,6,0.857142857,0.142857143,NA,NA,NA,3295.1
12,structured,load,testing,NA,stim01,square,checkerboard,popolu,lu,0,zzzzzz,0,6,1,0,NA,NA,NA,2328.2
12,structured,load,testing,NA,stim07,circle,checkerboard,huhulu,lu,0,hulu,0,2,0.333333333,0.666666667,NA,NA,NA,5642.2
12,structured,load,testing,NA,stim06,triangle,spotted,lalani,ni,0,lalani,1,0,0,1,NA,NA,NA,4844.7
12,structured,load,testing,NA,stim08,circle,striped,huhubi,bi,0,hulu,0,3,0.5,0.5,NA,NA,NA,3668.5
12,structured,load,testing,NA,stim05,triangle,striped,lalabi,bi,0,zzzzzz,0,6,1,0,NA,NA,NA,3021.3
12,structured,load,testing,NA,stim09,circle,spotted,huhuni,ni,0,hulu,0,3,0.5,0.5,NA,NA,NA,3504.6
13,unstructured,no load,testing,NA,stim03,square,spotted,momoni,ni,1,momoni,1,0,0,1,NA,NA,NA,8328.1
13,unstructured,no load,testing,NA,stim01,square,checkerboard,momobi,bi,1,momofa,0,2,0.333333333,0.666666667,NA,NA,NA,9600.6
13,unstructured,no load,testing,NA,stim05,triangle,striped,tuturi,ri,1,tuturi,1,0,0,1,NA,NA,NA,5031.3
13,unstructured,no load,testing,NA,stim08,circle,striped,huhuva,va,1,huhuri,0,2,0.333333333,0.666666667,NA,NA,NA,54017.6
13,unstructured,no load,testing,NA,stim04,triangle,checkerboard,tutudo,do,1,tutufa,0,2,0.333333333,0.666666667,NA,NA,NA,6241.6
13,unstructured,no load,testing,NA,stim06,triangle,spotted,tutupa,pa,1,tutudo,0,2,0.333333333,0.666666667,NA,NA,NA,11154.1
13,unstructured,no load,testing,NA,stim07,circle,checkerboard,huhusu,su,1,huhudo,0,2,0.333333333,0.666666667,NA,NA,NA,10675.2
13,unstructured,no load,testing,NA,stim09,circle,spotted,huhulu,lu,1,huhuno,0,2,0.333333333,0.666666667,NA,NA,NA,36410
13,unstructured,no load,testing,NA,stim02,square,striped,momofa,fa,1,momodo,0,2,0.333333333,0.666666667,NA,NA,NA,7371.8
14,structured,no load,testing,NA,stim06,triangle,spotted,popopa,pa,0,popupa,0,1,0.166666667,0.833333333,NA,NA,NA,36013.7
14,structured,no load,testing,NA,stim03,square,spotted,tutupa,pa,0,tutupa,1,0,0,1,NA,NA,NA,20282.5
14,structured,no load,testing,NA,stim02,square,striped,tutufa,fa,0,susufa,0,2,0.333333333,0.666666667,NA,NA,NA,30527.9
14,structured,no load,testing,NA,stim01,square,checkerboard,tutusu,su,0,tutusu,1,0,0,1,NA,NA,NA,16857.6
14,structured,no load,testing,NA,stim07,circle,checkerboard,nenesu,su,0,menesu,0,1,0.166666667,0.833333333,NA,NA,NA,27250.2
14,structured,no load,testing,NA,stim04,triangle,checkerboard,poposu,su,0,poposu,1,0,0,1,NA,NA,NA,22288.9
14,structured,no load,testing,NA,stim05,triangle,striped,popofa,fa,0,popofa,1,0,0,1,NA,NA,NA,20735.6
14,structured,no load,testing,NA,stim09,circle,spotted,nenepa,pa,0,memepa,0,2,0.333333333,0.666666667,NA,NA,NA,28088.4
14,structured,no load,testing,NA,stim08,circle,striped,nenefa,fa,0,memefa,0,2,0.333333333,0.666666667,NA,NA,NA,19223.1
15,unstructured,no load,testing,NA,stim02,square,striped,neneni,ni,1,nenelu,0,2,0.333333333,0.666666667,NA,NA,NA,12254
15,unstructured,no load,testing,NA,stim09,circle,spotted,tutupa,pa,1,tutuvu,0,2,0.333333333,0.666666667,NA,NA,NA,8926.5
15,unstructured,no load,testing,NA,stim07,circle,checkerboard,tutufa,fa,1,tutufa,1,0,0,1,NA,NA,NA,5830.5
15,unstructured,no load,testing,NA,stim03,square,spotted,nenelu,lu,1,nenulu,0,1,0.166666667,0.833333333,NA,NA,NA,16108
15,unstructured,no load,testing,NA,stim01,square,checkerboard,nenesu,su,1,nenescu,0,1,0.142857143,0.857142857,NA,NA,NA,9582.3
15,unstructured,no load,testing,NA,stim06,triangle,spotted,momori,ri,1,momori,1,0,0,1,NA,NA,NA,5469
15,unstructured,no load,testing,NA,stim05,triangle,striped,momobi,bi,1,momboso,0,3,0.428571429,0.571428571,NA,NA,NA,10897.9
15,unstructured,no load,testing,NA,stim08,circle,striped,tutuva,va,1,tutupa,0,1,0.166666667,0.833333333,NA,NA,NA,6210.5
15,unstructured,no load,testing,NA,stim04,triangle,checkerboard,momodo,do,1,momodo,1,0,0,1,NA,NA,NA,5925
16,structured,no load,testing,NA,stim08,circle,striped,momobi,bi,0,momobi,1,0,0,1,NA,NA,NA,4047.7
16,structured,no load,testing,NA,stim05,triangle,striped,kikibi,bi,0,kikibi,1,0,0,1,NA,NA,NA,5602.2
16,structured,no load,testing,NA,stim02,square,striped,tutubi,bi,0,tutubi,1,0,0,1,NA,NA,NA,9328.4
16,structured,no load,testing,NA,stim03,square,spotted,tutuni,ni,0,tutuni,1,0,0,1,NA,NA,NA,4910.8
16,structured,no load,testing,NA,stim06,triangle,spotted,kikini,ni,0,kikini,1,0,0,1,NA,NA,NA,3226.6
16,structured,no load,testing,NA,stim04,triangle,checkerboard,kikifa,fa,0,kikifa,1,0,0,1,NA,NA,NA,5573.2
16,structured,no load,testing,NA,stim09,circle,spotted,momoni,ni,0,momoni,1,0,0,1,NA,NA,NA,7435
16,structured,no load,testing,NA,stim07,circle,checkerboard,momofa,fa,0,momofa,1,0,0,1,NA,NA,NA,5192.3
16,structured,no load,testing,NA,stim01,square,checkerboard,tutufa,fa,0,tutufa,1,0,0,1,NA,NA,NA,10741
17,partial,load,training,interference,NA,NA,NA,NA,NA,NA,NA,NA,NA,NA,NA,308,308,3,4374.4
17,partial,load,training,interference,NA,NA,NA,NA,NA,NA,NA,NA,NA,NA,NA,791,791,3,3164.6
17,partial,load,training,interference,NA,NA,NA,NA,NA,NA,NA,NA,NA,NA,NA,362,362,3,1796.7
17,partial,load,training,interference,NA,NA,NA,NA,NA,NA,NA,NA,NA,NA,NA,461,461,3,1475.1
17,partial,load,training,interference,NA,NA,NA,NA,NA,NA,NA,NA,NA,NA,NA,481,481,3,1531
17,partial,load,training,interference,NA,NA,NA,NA,NA,NA,NA,NA,NA,NA,NA,940,382,0,3120.5
17,partial,load,training,interference,NA,NA,NA,NA,NA,NA,NA,NA,NA,NA,NA,146,146,3,2111.4
17,partial,load,training,interference,NA,NA,NA,NA,NA,NA,NA,NA,NA,NA,NA,613,613,3,1147.1
17,partial,load,training,interference,NA,NA,NA,NA,NA,NA,NA,NA,NA,NA,NA,537,537,3,1495.5
17,partial,load,training,interference,NA,NA,NA,NA,NA,NA,NA,NA,NA,NA,NA,518,581,1,2743.6
17,partial,load,training,interference,NA,NA,NA,NA,NA,NA,NA,NA,NA,NA,NA,640,640,3,1553.3
17,partial,load,training,interference,NA,NA,NA,NA,NA,NA,NA,NA,NA,NA,NA,42,42,3,1466.9
17,partial,load,training,interference,NA,NA,NA,NA,NA,NA,NA,NA,NA,NA,NA,460,862,1,2314.3
17,partial,load,training,interference,NA,NA,NA,NA,NA,NA,NA,NA,NA,NA,NA,428,428,3,2087.5
17,partial,load,training,interference,NA,NA,NA,NA,NA,NA,NA,NA,NA,NA,NA,714,719,2,2014.2
17,partial,load,training,interference,NA,NA,NA,NA,NA,NA,NA,NA,NA,NA,NA,729,729,3,2208.8
17,partial,load,training,interference,NA,NA,NA,NA,NA,NA,NA,NA,NA,NA,NA,374,374,3,1826.1
17,partial,load,training,interference,NA,NA,NA,NA,NA,NA,NA,NA,NA,NA,NA,140,140,3,1742.2
17,partial,load,training,interference,NA,NA,NA,NA,NA,NA,NA,NA,NA,NA,NA,693,693,3,2533.5
17,partial,load,training,interference,NA,NA,NA,NA,NA,NA,NA,NA,NA,NA,NA,268,268,3,1804.7
17,partial,load,training,interference,NA,NA,NA,NA,NA,NA,NA,NA,NA,NA,NA,531,531,3,1400.7
17,partial,load,training,interference,NA,NA,NA,NA,NA,NA,NA,NA,NA,NA,NA,605,605,3,1717.5
17,partial,load,training,interference,NA,NA,NA,NA,NA,NA,NA,NA,NA,NA,NA,57,57,3,1680.8
17,partial,load,training,interference,NA,NA,NA,NA,NA,NA,NA,NA,NA,NA,NA,85,85,3,1376.8
17,partial,load,training,interference,NA,NA,NA,NA,NA,NA,NA,NA,NA,NA,NA,302,302,3,2947
17,partial,load,training,interference,NA,NA,NA,NA,NA,NA,NA,NA,NA,NA,NA,796,362,0,1706.4
17,partial,load,training,interference,NA,NA,NA,NA,NA,NA,NA,NA,NA,NA,NA,82,82,3,1588.1
17,partial,load,training,interference,NA,NA,NA,NA,NA,NA,NA,NA,NA,NA,NA,371,32,0,1447.7
17,partial,load,training,interference,NA,NA,NA,NA,NA,NA,NA,NA,NA,NA,NA,486,482,2,2859.5
17,partial,load,training,interference,NA,NA,NA,NA,NA,NA,NA,NA,NA,NA,NA,42,42,3,1696.8
17,partial,load,training,interference,NA,NA,NA,NA,NA,NA,NA,NA,NA,NA,NA,409,409,3,1540.6
17,partial,load,training,interference,NA,NA,NA,NA,NA,NA,NA,NA,NA,NA,NA,617,609,1,1757
17,partial,load,training,interference,NA,NA,NA,NA,NA,NA,NA,NA,NA,NA,NA,371,371,3,1654.2
17,partial,load,training,interference,NA,NA,NA,NA,NA,NA,NA,NA,NA,NA,NA,582,582,3,1869.1
17,partial,load,training,interference,NA,NA,NA,NA,NA,NA,NA,NA,NA,NA,NA,752,752,3,1971.7
17,partial,load,training,interference,NA,NA,NA,NA,NA,NA,NA,NA,NA,NA,NA,741,791,2,1457.1
17,partial,load,training,interference,NA,NA,NA,NA,NA,NA,NA,NA,NA,NA,NA,716,716,3,2156.8
17,partial,load,training,interference,NA,NA,NA,NA,NA,NA,NA,NA,NA,NA,NA,914,719,1,1633
17,partial,load,training,interference,NA,NA,NA,NA,NA,NA,NA,NA,NA,NA,NA,790,790,3,2218.9
17,partial,load,training,interference,NA,NA,NA,NA,NA,NA,NA,NA,NA,NA,NA,942,791,0,2754
17,partial,load,training,interference,NA,NA,NA,NA,NA,NA,NA,NA,NA,NA,NA,368,368,3,2694
17,partial,load,training,interference,NA,NA,NA,NA,NA,NA,NA,NA,NA,NA,NA,629,629,3,1580
17,partial,load,training,interference,NA,NA,NA,NA,NA,NA,NA,NA,NA,NA,NA,286,226,2,3695.7
17,partial,load,training,interference,NA,NA,NA,NA,NA,NA,NA,NA,NA,NA,NA,502,502,3,1322.2
17,partial,load,training,interference,NA,NA,NA,NA,NA,NA,NA,NA,NA,NA,NA,264,264,3,1502.3
17,partial,load,training,interference,NA,NA,NA,NA,NA,NA,NA,NA,NA,NA,NA,857,222,0,3823
17,partial,load,training,interference,NA,NA,NA,NA,NA,NA,NA,NA,NA,NA,NA,826,826,3,1581.5
17,partial,load,training,interference,NA,NA,NA,NA,NA,NA,NA,NA,NA,NA,NA,529,529,3,3399.2
17,partial,load,training,interference,NA,NA,NA,NA,NA,NA,NA,NA,NA,NA,NA,186,526,1,2296.5
17,partial,load,training,interference,NA,NA,NA,NA,NA,NA,NA,NA,NA,NA,NA,581,581,3,1924.5
17,partial,load,training,interference,NA,NA,NA,NA,NA,NA,NA,NA,NA,NA,NA,924,924,3,1786.2
17,partial,load,training,interference,NA,NA,NA,NA,NA,NA,NA,NA,NA,NA,NA,369,369,3,1521.8
17,partial,load,training,interference,NA,NA,NA,NA,NA,NA,NA,NA,NA,NA,NA,948,948,3,2620.3
17,partial,load,training,interference,NA,NA,NA,NA,NA,NA,NA,NA,NA,NA,NA,814,814,3,1712.7
17,partial,load,training,interference,NA,NA,NA,NA,NA,NA,NA,NA,NA,NA,NA,25,25,3,2196.3
17,partial,load,testing,NA,stim04,triangle,checkerboard,bebefa,fa,0,bebeni,0,2,0.333333333,0.666666667,NA,NA,NA,8249.8
17,partial,load,testing,NA,stim06,triangle,spotted,bebedo,do,0,bebopa,0,3,0.5,0.5,NA,NA,NA,10763.2
17,partial,load,testing,NA,stim07,circle,checkerboard,popofa,fa,0,pophoa,0,2,0.333333333,0.666666667,NA,NA,NA,16611.6
17,partial,load,testing,NA,stim03,square,spotted,tutudo,do,0,teteni,0,4,0.666666667,0.333333333,NA,NA,NA,12876.8
17,partial,load,testing,NA,stim02,square,striped,tutuni,ni,0,tutuni,1,0,0,1,NA,NA,NA,6240
17,partial,load,testing,NA,stim09,circle,spotted,popopa,pa,1,poponi,0,2,0.333333333,0.666666667,NA,NA,NA,4505.4
17,partial,load,testing,NA,stim08,circle,striped,poponi,ni,0,popeni,0,1,0.166666667,0.833333333,NA,NA,NA,5223.9
17,partial,load,testing,NA,stim05,triangle,striped,bebeni,ni,0,bebeni,1,0,0,1,NA,NA,NA,7399.1
17,partial,load,testing,NA,stim01,square,checkerboard,tutulu,lu,1,tutuha,0,2,0.333333333,0.666666667,NA,NA,NA,5330.9
18,unstructured,load,training,interference,NA,NA,NA,NA,NA,NA,NA,NA,NA,NA,NA,524,524,3,6847
18,unstructured,load,training,interference,NA,NA,NA,NA,NA,NA,NA,NA,NA,NA,NA,684,684,3,5362
18,unstructured,load,training,interference,NA,NA,NA,NA,NA,NA,NA,NA,NA,NA,NA,405,405,3,6451
18,unstructured,load,training,interference,NA,NA,NA,NA,NA,NA,NA,NA,NA,NA,NA,250,250,3,7511
18,unstructured,load,training,interference,NA,NA,NA,NA,NA,NA,NA,NA,NA,NA,NA,936,936,3,5672
18,unstructured,load,training,interference,NA,NA,NA,NA,NA,NA,NA,NA,NA,NA,NA,317,317,3,5507
18,unstructured,load,training,interference,NA,NA,NA,NA,NA,NA,NA,NA,NA,NA,NA,951,951,3,4941
18,unstructured,load,training,interference,NA,NA,NA,NA,NA,NA,NA,NA,NA,NA,NA,192,192,3,4177
18,unstructured,load,training,interference,NA,NA,NA,NA,NA,NA,NA,NA,NA,NA,NA,641,641,3,4482
18,unstructured,load,training,interference,NA,NA,NA,NA,NA,NA,NA,NA,NA,NA,NA,706,706,3,4334
18,unstructured,load,training,interference,NA,NA,NA,NA,NA,NA,NA,NA,NA,NA,NA,274,274,3,4701
18,unstructured,load,training,interference,NA,NA,NA,NA,NA,NA,NA,NA,NA,NA,NA,840,840,3,7585
18,unstructured,load,training,interference,NA,NA,NA,NA,NA,NA,NA,NA,NA,NA,NA,196,196,3,5003
18,unstructured,load,training,interference,NA,NA,NA,NA,NA,NA,NA,NA,NA,NA,NA,92,92,3,6158
18,unstructured,load,training,interference,NA,NA,NA,NA,NA,NA,NA,NA,NA,NA,NA,758,758,3,4141
18,unstructured,load,training,interference,NA,NA,NA,NA,NA,NA,NA,NA,NA,NA,NA,642,642,3,4219
18,unstructured,load,training,interference,NA,NA,NA,NA,NA,NA,NA,NA,NA,NA,NA,81,42,1,4770
18,unstructured,load,training,interference,NA,NA,NA,NA,NA,NA,NA,NA,NA,NA,NA,742,742,3,4219
18,unstructured,load,training,interference,NA,NA,NA,NA,NA,NA,NA,NA,NA,NA,NA,968,968,3,4270
18,unstructured,load,training,interference,NA,NA,NA,NA,NA,NA,NA,NA,NA,NA,NA,415,415,3,4705
18,unstructured,load,training,interference,NA,NA,NA,NA,NA,NA,NA,NA,NA,NA,NA,740,740,3,4203
18,unstructured,load,training,interference,NA,NA,NA,NA,NA,NA,NA,NA,NA,NA,NA,863,863,3,4281
18,unstructured,load,training,interference,NA,NA,NA,NA,NA,NA,NA,NA,NA,NA,NA,146,146,3,4320
18,unstructured,load,training,interference,NA,NA,NA,NA,NA,NA,NA,NA,NA,NA,NA,374,374,3,5666
18,unstructured,load,training,interference,NA,NA,NA,NA,NA,NA,NA,NA,NA,NA,NA,520,520,3,4888
18,unstructured,load,training,interference,NA,NA,NA,NA,NA,NA,NA,NA,NA,NA,NA,693,693,3,4355
18,unstructured,load,training,interference,NA,NA,NA,NA,NA,NA,NA,NA,NA,NA,NA,495,495,3,4159
18,unstructured,load,training,interference,NA,NA,NA,NA,NA,NA,NA,NA,NA,NA,NA,140,140,3,4379
18,unstructured,load,training,interference,NA,NA,NA,NA,NA,NA,NA,NA,NA,NA,NA,584,584,3,3788
18,unstructured,load,training,interference,NA,NA,NA,NA,NA,NA,NA,NA,NA,NA,NA,251,251,3,5564
18,unstructured,load,training,interference,NA,NA,NA,NA,NA,NA,NA,NA,NA,NA,NA,627,627,3,5505
18,unstructured,load,training,interference,NA,NA,NA,NA,NA,NA,NA,NA,NA,NA,NA,692,692,3,4368
18,unstructured,load,training,interference,NA,NA,NA,NA,NA,NA,NA,NA,NA,NA,NA,759,759,3,5723
18,unstructured,load,training,interference,NA,NA,NA,NA,NA,NA,NA,NA,NA,NA,NA,839,839,3,4808
18,unstructured,load,training,interference,NA,NA,NA,NA,NA,NA,NA,NA,NA,NA,NA,682,682,3,4256
18,unstructured,load,training,interference,NA,NA,NA,NA,NA,NA,NA,NA,NA,NA,NA,807,807,3,4992
18,unstructured,load,training,interference,NA,NA,NA,NA,NA,NA,NA,NA,NA,NA,NA,64,64,3,4519
18,unstructured,load,training,interference,NA,NA,NA,NA,NA,NA,NA,NA,NA,NA,NA,530,530,3,5010
18,unstructured,load,training,interference,NA,NA,NA,NA,NA,NA,NA,NA,NA,NA,NA,641,641,3,4719
18,unstructured,load,training,interference,NA,NA,NA,NA,NA,NA,NA,NA,NA,NA,NA,796,796,3,4257
18,unstructured,load,training,interference,NA,NA,NA,NA,NA,NA,NA,NA,NA,NA,NA,605,605,3,4647
18,unstructured,load,training,interference,NA,NA,NA,NA,NA,NA,NA,NA,NA,NA,NA,51,51,3,4294
18,unstructured,load,training,interference,NA,NA,NA,NA,NA,NA,NA,NA,NA,NA,NA,617,617,3,6396
18,unstructured,load,training,interference,NA,NA,NA,NA,NA,NA,NA,NA,NA,NA,NA,480,480,3,4422
18,unstructured,load,training,interference,NA,NA,NA,NA,NA,NA,NA,NA,NA,NA,NA,475,475,3,4225
18,unstructured,load,training,interference,NA,NA,NA,NA,NA,NA,NA,NA,NA,NA,NA,208,208,3,4457
18,unstructured,load,training,interference,NA,NA,NA,NA,NA,NA,NA,NA,NA,NA,NA,946,946,3,5786
18,unstructured,load,training,interference,NA,NA,NA,NA,NA,NA,NA,NA,NA,NA,NA,642,642,3,6952
18,unstructured,load,training,interference,NA,NA,NA,NA,NA,NA,NA,NA,NA,NA,NA,638,638,3,4681
18,unstructured,load,training,interference,NA,NA,NA,NA,NA,NA,NA,NA,NA,NA,NA,36,36,3,4636
18,unstructured,load,training,interference,NA,NA,NA,NA,NA,NA,NA,NA,NA,NA,NA,726,756,2,4140
18,unstructured,load,training,interference,NA,NA,NA,NA,NA,NA,NA,NA,NA,NA,NA,649,649,3,5013
18,unstructured,load,training,interference,NA,NA,NA,NA,NA,NA,NA,NA,NA,NA,NA,916,916,3,4847
18,unstructured,load,training,interference,NA,NA,NA,NA,NA,NA,NA,NA,NA,NA,NA,738,738,3,4525
18,unstructured,load,training,interference,NA,NA,NA,NA,NA,NA,NA,NA,NA,NA,NA,641,641,3,4207
18,unstructured,load,testing,NA,stim03,square,spotted,kikido,do,1,momoso,0,5,0.833333333,0.166666667,NA,NA,NA,8325
18,unstructured,load,testing,NA,stim02,square,striped,kikiri,ri,1,kikiru,0,1,0.166666667,0.833333333,NA,NA,NA,9907
18,unstructured,load,testing,NA,stim01,square,checkerboard,kikibi,bi,1,momosa,0,6,1,0,NA,NA,NA,8310
18,unstructured,load,testing,NA,stim04,triangle,checkerboard,momopa,pa,1,huhuli,0,6,1,0,NA,NA,NA,7305
18,unstructured,load,testing,NA,stim05,triangle,striped,momosu,su,1,zzzzzz,0,6,1,0,NA,NA,NA,7685
18,unstructured,load,testing,NA,stim06,triangle,spotted,momofa,fa,1,zzzzzz,0,6,1,0,NA,NA,NA,7786
18,unstructured,load,testing,NA,stim07,circle,checkerboard,huhuva,va,1,zzzzzz,0,6,1,0,NA,NA,NA,6376
18,unstructured,load,testing,NA,stim09,circle,spotted,huhulu,lu,1,zzzzzz,0,6,1,0,NA,NA,NA,5742
18,unstructured,load,testing,NA,stim08,circle,striped,huhuni,ni,1,zzzzzz,0,6,1,0,NA,NA,NA,7638
19,partial,load,training,interference,NA,NA,NA,NA,NA,NA,NA,NA,NA,NA,NA,72,72,3,6976
19,partial,load,training,interference,NA,NA,NA,NA,NA,NA,NA,NA,NA,NA,NA,97,97,3,4794
19,partial,load,training,interference,NA,NA,NA,NA,NA,NA,NA,NA,NA,NA,NA,806,806,3,4938
19,partial,load,training,interference,NA,NA,NA,NA,NA,NA,NA,NA,NA,NA,NA,462,462,3,4779
19,partial,load,training,interference,NA,NA,NA,NA,NA,NA,NA,NA,NA,NA,NA,469,469,3,4630
19,partial,load,training,interference,NA,NA,NA,NA,NA,NA,NA,NA,NA,NA,NA,314,314,3,3832
19,partial,load,training,interference,NA,NA,NA,NA,NA,NA,NA,NA,NA,NA,NA,796,396,2,4883
19,partial,load,training,interference,NA,NA,NA,NA,NA,NA,NA,NA,NA,NA,NA,938,938,3,4658
19,partial,load,training,interference,NA,NA,NA,NA,NA,NA,NA,NA,NA,NA,NA,130,140,2,4572
19,partial,load,training,interference,NA,NA,NA,NA,NA,NA,NA,NA,NA,NA,NA,572,572,3,4649
19,partial,load,training,interference,NA,NA,NA,NA,NA,NA,NA,NA,NA,NA,NA,25,25,3,7945
19,partial,load,training,interference,NA,NA,NA,NA,NA,NA,NA,NA,NA,NA,NA,264,264,3,5443
19,partial,load,training,interference,NA,NA,NA,NA,NA,NA,NA,NA,NA,NA,NA,570,570,3,5138
19,partial,load,training,interference,NA,NA,NA,NA,NA,NA,NA,NA,NA,NA,NA,240,240,3,6388
19,partial,load,training,interference,NA,NA,NA,NA,NA,NA,NA,NA,NA,NA,NA,140,140,3,5619
19,partial,load,training,interference,NA,NA,NA,NA,NA,NA,NA,NA,NA,NA,NA,168,168,3,5290
19,partial,load,training,interference,NA,NA,NA,NA,NA,NA,NA,NA,NA,NA,NA,158,158,3,6525
19,partial,load,training,interference,NA,NA,NA,NA,NA,NA,NA,NA,NA,NA,NA,392,392,3,6240
19,partial,load,training,interference,NA,NA,NA,NA,NA,NA,NA,NA,NA,NA,NA,397,397,3,4899
19,partial,load,training,interference,NA,NA,NA,NA,NA,NA,NA,NA,NA,NA,NA,96,96,3,4420
19,partial,load,training,interference,NA,NA,NA,NA,NA,NA,NA,NA,NA,NA,NA,697,697,3,5455
19,partial,load,training,interference,NA,NA,NA,NA,NA,NA,NA,NA,NA,NA,NA,863,863,3,7187
19,partial,load,training,interference,NA,NA,NA,NA,NA,NA,NA,NA,NA,NA,NA,169,169,3,4950
19,partial,load,training,interference,NA,NA,NA,NA,NA,NA,NA,NA,NA,NA,NA,72,72,3,4979
19,partial,load,training,interference,NA,NA,NA,NA,NA,NA,NA,NA,NA,NA,NA,295,292,2,3953
19,partial,load,training,interference,NA,NA,NA,NA,NA,NA,NA,NA,NA,NA,NA,716,716,3,4743
19,partial,load,training,interference,NA,NA,NA,NA,NA,NA,NA,NA,NA,NA,NA,374,374,3,4182
19,partial,load,training,interference,NA,NA,NA,NA,NA,NA,NA,NA,NA,NA,NA,263,263,3,3876
19,partial,load,training,interference,NA,NA,NA,NA,NA,NA,NA,NA,NA,NA,NA,613,613,3,5609
19,partial,load,training,interference,NA,NA,NA,NA,NA,NA,NA,NA,NA,NA,NA,639,639,3,4624
19,partial,load,training,interference,NA,NA,NA,NA,NA,NA,NA,NA,NA,NA,NA,284,284,3,4414
19,partial,load,training,interference,NA,NA,NA,NA,NA,NA,NA,NA,NA,NA,NA,506,506,3,4325
19,partial,load,training,interference,NA,NA,NA,NA,NA,NA,NA,NA,NA,NA,NA,951,951,3,4402
19,partial,load,training,interference,NA,NA,NA,NA,NA,NA,NA,NA,NA,NA,NA,903,915,1,4260
19,partial,load,training,interference,NA,NA,NA,NA,NA,NA,NA,NA,NA,NA,NA,517,517,3,3749
19,partial,load,training,interference,NA,NA,NA,NA,NA,NA,NA,NA,NA,NA,NA,359,359,3,4289
19,partial,load,training,interference,NA,NA,NA,NA,NA,NA,NA,NA,NA,NA,NA,963,963,3,4637
19,partial,load,training,interference,NA,NA,NA,NA,NA,NA,NA,NA,NA,NA,NA,302,302,3,4699
19,partial,load,training,interference,NA,NA,NA,NA,NA,NA,NA,NA,NA,NA,NA,596,596,3,4434
19,partial,load,training,interference,NA,NA,NA,NA,NA,NA,NA,NA,NA,NA,NA,739,739,3,3964
19,partial,load,training,interference,NA,NA,NA,NA,NA,NA,NA,NA,NA,NA,NA,475,475,3,4493
19,partial,load,training,interference,NA,NA,NA,NA,NA,NA,NA,NA,NA,NA,NA,379,475,1,6386
19,partial,load,training,interference,NA,NA,NA,NA,NA,NA,NA,NA,NA,NA,NA,409,409,3,6055
19,partial,load,training,interference,NA,NA,NA,NA,NA,NA,NA,NA,NA,NA,NA,790,790,3,5575
19,partial,load,training,interference,NA,NA,NA,NA,NA,NA,NA,NA,NA,NA,NA,469,469,3,4726
19,partial,load,training,interference,NA,NA,NA,NA,NA,NA,NA,NA,NA,NA,NA,483,483,3,4261
19,partial,load,training,interference,NA,NA,NA,NA,NA,NA,NA,NA,NA,NA,NA,47,47,3,4877
19,partial,load,training,interference,NA,NA,NA,NA,NA,NA,NA,NA,NA,NA,NA,368,368,3,4470
19,partial,load,training,interference,NA,NA,NA,NA,NA,NA,NA,NA,NA,NA,NA,96,96,3,4188
19,partial,load,training,interference,NA,NA,NA,NA,NA,NA,NA,NA,NA,NA,NA,38,38,3,5048
19,partial,load,training,interference,NA,NA,NA,NA,NA,NA,NA,NA,NA,NA,NA,518,518,3,3781
19,partial,load,training,interference,NA,NA,NA,NA,NA,NA,NA,NA,NA,NA,NA,370,370,3,4510
19,partial,load,training,interference,NA,NA,NA,NA,NA,NA,NA,NA,NA,NA,NA,350,390,2,4713
19,partial,load,training,interference,NA,NA,NA,NA,NA,NA,NA,NA,NA,NA,NA,849,349,2,4004
19,partial,load,training,interference,NA,NA,NA,NA,NA,NA,NA,NA,NA,NA,NA,394,349,1,4799
19,partial,load,testing,NA,stim06,triangle,spotted,momosu,su,0,momosu,1,0,0,1,NA,NA,NA,9582
19,partial,load,testing,NA,stim07,circle,checkerboard,huhuni,ni,0,huhusu,0,2,0.333333333,0.666666667,NA,NA,NA,10965
19,partial,load,testing,NA,stim09,circle,spotted,huhusu,su,0,huhuni,0,2,0.333333333,0.666666667,NA,NA,NA,10500
19,partial,load,testing,NA,stim03,square,spotted,lalabi,bi,1,lalani,0,1,0.166666667,0.833333333,NA,NA,NA,9095
19,partial,load,testing,NA,stim04,triangle,checkerboard,momova,va,1,momova,1,0,0,1,NA,NA,NA,8514
19,partial,load,testing,NA,stim08,circle,striped,huhudo,do,0,huhudo,1,0,0,1,NA,NA,NA,13321
19,partial,load,testing,NA,stim02,square,striped,lalado,do,0,lalado,1,0,0,1,NA,NA,NA,10495
19,partial,load,testing,NA,stim05,triangle,striped,momodo,do,0,momoni,0,2,0.333333333,0.666666667,NA,NA,NA,13037
19,partial,load,testing,NA,stim01,square,checkerboard,lalani,ni,0,lalado,0,2,0.333333333,0.666666667,NA,NA,NA,11673
20,unstructured,load,training,interference,NA,NA,NA,NA,NA,NA,NA,NA,NA,NA,NA,369,369,3,6595
20,unstructured,load,training,interference,NA,NA,NA,NA,NA,NA,NA,NA,NA,NA,NA,613,613,3,5246.1
20,unstructured,load,training,interference,NA,NA,NA,NA,NA,NA,NA,NA,NA,NA,NA,417,417,3,4912.2
20,unstructured,load,training,interference,NA,NA,NA,NA,NA,NA,NA,NA,NA,NA,NA,925,925,3,4145.5
20,unstructured,load,training,interference,NA,NA,NA,NA,NA,NA,NA,NA,NA,NA,NA,372,325,1,4739.7
20,unstructured,load,training,interference,NA,NA,NA,NA,NA,NA,NA,NA,NA,NA,NA,185,185,3,4075
20,unstructured,load,training,interference,NA,NA,NA,NA,NA,NA,NA,NA,NA,NA,NA,59,59,3,6586.4
20,unstructured,load,training,interference,NA,NA,NA,NA,NA,NA,NA,NA,NA,NA,NA,572,525,1,7658.4
20,unstructured,load,training,interference,NA,NA,NA,NA,NA,NA,NA,NA,NA,NA,NA,483,483,3,5338
20,unstructured,load,training,interference,NA,NA,NA,NA,NA,NA,NA,NA,NA,NA,NA,693,693,3,5082.8
20,unstructured,load,training,interference,NA,NA,NA,NA,NA,NA,NA,NA,NA,NA,NA,92,92,3,4082.4
20,unstructured,load,training,interference,NA,NA,NA,NA,NA,NA,NA,NA,NA,NA,NA,720,720,3,5843
20,unstructured,load,training,interference,NA,NA,NA,NA,NA,NA,NA,NA,NA,NA,NA,942,942,3,4074
20,unstructured,load,training,interference,NA,NA,NA,NA,NA,NA,NA,NA,NA,NA,NA,597,597,3,4313.5
20,unstructured,load,training,interference,NA,NA,NA,NA,NA,NA,NA,NA,NA,NA,NA,69,69,3,5067.6
20,unstructured,load,training,interference,NA,NA,NA,NA,NA,NA,NA,NA,NA,NA,NA,790,790,3,4858.3
20,unstructured,load,training,interference,NA,NA,NA,NA,NA,NA,NA,NA,NA,NA,NA,526,526,3,7074.4
20,unstructured,load,training,interference,NA,NA,NA,NA,NA,NA,NA,NA,NA,NA,NA,179,179,3,5145.7
20,unstructured,load,training,interference,NA,NA,NA,NA,NA,NA,NA,NA,NA,NA,NA,31,31,3,6115.3
20,unstructured,load,training,interference,NA,NA,NA,NA,NA,NA,NA,NA,NA,NA,NA,925,925,3,7184.6
20,unstructured,load,training,interference,NA,NA,NA,NA,NA,NA,NA,NA,NA,NA,NA,941,941,3,5164.6
20,unstructured,load,training,interference,NA,NA,NA,NA,NA,NA,NA,NA,NA,NA,NA,963,946,1,7011.2
20,unstructured,load,training,interference,NA,NA,NA,NA,NA,NA,NA,NA,NA,NA,NA,169,169,3,3276.2
20,unstructured,load,training,interference,NA,NA,NA,NA,NA,NA,NA,NA,NA,NA,NA,263,263,3,2386.8
20,unstructured,load,training,interference,NA,NA,NA,NA,NA,NA,NA,NA,NA,NA,NA,594,594,3,3787.8
20,unstructured,load,training,interference,NA,NA,NA,NA,NA,NA,NA,NA,NA,NA,NA,824,824,3,4491.9
20,unstructured,load,training,interference,NA,NA,NA,NA,NA,NA,NA,NA,NA,NA,NA,725,725,3,3417.8
20,unstructured,load,training,interference,NA,NA,NA,NA,NA,NA,NA,NA,NA,NA,NA,396,396,3,3675
20,unstructured,load,training,interference,NA,NA,NA,NA,NA,NA,NA,NA,NA,NA,NA,139,139,3,3824.9
20,unstructured,load,training,interference,NA,NA,NA,NA,NA,NA,NA,NA,NA,NA,NA,597,597,3,3548.9
20,unstructured,load,training,interference,NA,NA,NA,NA,NA,NA,NA,NA,NA,NA,NA,702,702,3,2755.5
20,unstructured,load,training,interference,NA,NA,NA,NA,NA,NA,NA,NA,NA,NA,NA,592,592,3,3651.4
20,unstructured,load,training,interference,NA,NA,NA,NA,NA,NA,NA,NA,NA,NA,NA,860,860,3,2738.9
20,unstructured,load,training,interference,NA,NA,NA,NA,NA,NA,NA,NA,NA,NA,NA,473,473,3,2731.7
20,unstructured,load,training,interference,NA,NA,NA,NA,NA,NA,NA,NA,NA,NA,NA,915,915,3,3497.5
20,unstructured,load,training,interference,NA,NA,NA,NA,NA,NA,NA,NA,NA,NA,NA,685,685,3,2906.3
20,unstructured,load,training,interference,NA,NA,NA,NA,NA,NA,NA,NA,NA,NA,NA,572,596,1,4042.3
20,unstructured,load,training,interference,NA,NA,NA,NA,NA,NA,NA,NA,NA,NA,NA,206,206,3,4457.2
20,unstructured,load,training,interference,NA,NA,NA,NA,NA,NA,NA,NA,NA,NA,NA,574,574,3,2763.3
20,unstructured,load,training,interference,NA,NA,NA,NA,NA,NA,NA,NA,NA,NA,NA,208,208,3,3001.6
20,unstructured,load,training,interference,NA,NA,NA,NA,NA,NA,NA,NA,NA,NA,NA,304,304,3,2281
20,unstructured,load,training,interference,NA,NA,NA,NA,NA,NA,NA,NA,NA,NA,NA,537,537,3,2481.8
20,unstructured,load,training,interference,NA,NA,NA,NA,NA,NA,NA,NA,NA,NA,NA,405,437,1,3172.5
20,unstructured,load,training,interference,NA,NA,NA,NA,NA,NA,NA,NA,NA,NA,NA,749,749,3,3969.3
20,unstructured,load,training,interference,NA,NA,NA,NA,NA,NA,NA,NA,NA,NA,NA,183,183,3,3209.9
20,unstructured,load,training,interference,NA,NA,NA,NA,NA,NA,NA,NA,NA,NA,NA,794,794,3,3282.2
20,unstructured,load,training,interference,NA,NA,NA,NA,NA,NA,NA,NA,NA,NA,NA,64,64,3,3471.2
20,unstructured,load,training,interference,NA,NA,NA,NA,NA,NA,NA,NA,NA,NA,NA,91,91,3,3256.6
20,unstructured,load,training,interference,NA,NA,NA,NA,NA,NA,NA,NA,NA,NA,NA,96,96,3,2586.2
20,unstructured,load,training,interference,NA,NA,NA,NA,NA,NA,NA,NA,NA,NA,NA,862,896,1,3176.4
20,unstructured,load,training,interference,NA,NA,NA,NA,NA,NA,NA,NA,NA,NA,NA,72,72,3,3097.6
20,unstructured,load,training,interference,NA,NA,NA,NA,NA,NA,NA,NA,NA,NA,NA,584,584,3,3343
20,unstructured,load,training,interference,NA,NA,NA,NA,NA,NA,NA,NA,NA,NA,NA,490,490,3,2848.2
20,unstructured,load,training,interference,NA,NA,NA,NA,NA,NA,NA,NA,NA,NA,NA,360,360,3,3010.3
20,unstructured,load,training,interference,NA,NA,NA,NA,NA,NA,NA,NA,NA,NA,NA,42,42,3,3589.6
20,unstructured,load,testing,NA,stim04,triangle,checkerboard,popodo,do,1,nenelu,0,6,1,0,NA,NA,NA,9078.2
20,unstructured,load,testing,NA,stim03,square,spotted,neneni,ni,1,popodo,0,6,1,0,NA,NA,NA,15539.6
20,unstructured,load,testing,NA,stim05,triangle,striped,popova,va,1,huhupa,0,5,0.833333333,0.166666667,NA,NA,NA,14186.9
20,unstructured,load,testing,NA,stim07,circle,checkerboard,huhufa,fa,1,nenelu,0,6,1,0,NA,NA,NA,12420.4
20,unstructured,load,testing,NA,stim01,square,checkerboard,nenelu,lu,1,neneni,0,2,0.333333333,0.666666667,NA,NA,NA,8756.6
20,unstructured,load,testing,NA,stim02,square,striped,nenesu,su,1,nenesu,1,0,0,1,NA,NA,NA,7740.8
20,unstructured,load,testing,NA,stim06,triangle,spotted,popori,ri,1,popova,0,2,0.333333333,0.666666667,NA,NA,NA,6933.7
20,unstructured,load,testing,NA,stim08,circle,striped,huhubi,bi,1,huhubi,1,0,0,1,NA,NA,NA,15741
20,unstructured,load,testing,NA,stim09,circle,spotted,huhupa,pa,1,popori,0,6,1,0,NA,NA,NA,9477.3
21,structured,no load,testing,NA,stim05,triangle,striped,lalasu,su,0,lalasu,1,0,0,1,NA,NA,NA,18206.4
21,structured,no load,testing,NA,stim02,square,striped,kikisu,su,0,bebesu,0,4,0.666666667,0.333333333,NA,NA,NA,11964.3
21,structured,no load,testing,NA,stim03,square,spotted,kikifa,fa,0,bebefa,0,4,0.666666667,0.333333333,NA,NA,NA,13372.2
21,structured,no load,testing,NA,stim06,triangle,spotted,lalafa,fa,0,lalafa,1,0,0,1,NA,NA,NA,11477.1
21,structured,no load,testing,NA,stim01,square,checkerboard,kikipa,pa,0,kikipa,1,0,0,1,NA,NA,NA,22260.6
21,structured,no load,testing,NA,stim04,triangle,checkerboard,lalapa,pa,0,lalapa,1,0,0,1,NA,NA,NA,11645.5
21,structured,no load,testing,NA,stim09,circle,spotted,bebefa,fa,0,bebepa,0,1,0.166666667,0.833333333,NA,NA,NA,12940.7
21,structured,no load,testing,NA,stim08,circle,striped,bebesu,su,0,bebesu,1,0,0,1,NA,NA,NA,8548.8
21,structured,no load,testing,NA,stim07,circle,checkerboard,bebepa,pa,0,bebela,0,1,0.166666667,0.833333333,NA,NA,NA,9204.9
22,partial,no load,testing,NA,stim03,square,spotted,huhusu,su,0,huhusu,1,0,0,1,NA,NA,NA,11036.1
22,partial,no load,testing,NA,stim09,circle,spotted,nenelu,lu,1,nenasu,0,2,0.333333333,0.666666667,NA,NA,NA,25716.7
22,partial,no load,testing,NA,stim01,square,checkerboard,huhudo,do,0,huhudo,1,0,0,1,NA,NA,NA,8505
22,partial,no load,testing,NA,stim07,circle,checkerboard,nenedo,do,0,nenedu,0,1,0.166666667,0.833333333,NA,NA,NA,28227.6
22,partial,no load,testing,NA,stim08,circle,striped,nenebi,bi,0,nen,0,3,0.5,0.5,NA,NA,NA,21573.2
22,partial,no load,testing,NA,stim04,triangle,checkerboard,gagava,va,1,gegabi,0,3,0.5,0.5,NA,NA,NA,25381.5
22,partial,no load,testing,NA,stim06,triangle,spotted,gagasu,su,0,gegasu,0,1,0.166666667,0.833333333,NA,NA,NA,11478.7
22,partial,no load,testing,NA,stim05,triangle,striped,gagabi,bi,0,gegabi,0,1,0.166666667,0.833333333,NA,NA,NA,30013.5
22,partial,no load,testing,NA,stim02,square,striped,huhubi,bi,0,hu,0,4,0.666666667,0.333333333,NA,NA,NA,16400.3
23,partial,load,training,interference,NA,NA,NA,NA,NA,NA,NA,NA,NA,NA,NA,502,502,3,3680
23,partial,load,training,interference,NA,NA,NA,NA,NA,NA,NA,NA,NA,NA,NA,724,724,3,2590
23,partial,load,training,interference,NA,NA,NA,NA,NA,NA,NA,NA,NA,NA,NA,748,748,3,6438
23,partial,load,training,interference,NA,NA,NA,NA,NA,NA,NA,NA,NA,NA,NA,697,697,3,2149
23,partial,load,training,interference,NA,NA,NA,NA,NA,NA,NA,NA,NA,NA,NA,497,497,3,2182
23,partial,load,training,interference,NA,NA,NA,NA,NA,NA,NA,NA,NA,NA,NA,486,486,3,3822
23,partial,load,training,interference,NA,NA,NA,NA,NA,NA,NA,NA,NA,NA,NA,160,160,3,1742
23,partial,load,training,interference,NA,NA,NA,NA,NA,NA,NA,NA,NA,NA,NA,517,517,3,2423
23,partial,load,training,interference,NA,NA,NA,NA,NA,NA,NA,NA,NA,NA,NA,39,39,3,3390
23,partial,load,training,interference,NA,NA,NA,NA,NA,NA,NA,NA,NA,NA,NA,604,664,2,3069
23,partial,load,training,interference,NA,NA,NA,NA,NA,NA,NA,NA,NA,NA,NA,146,146,3,2747
23,partial,load,training,interference,NA,NA,NA,NA,NA,NA,NA,NA,NA,NA,NA,953,953,3,2246
23,partial,load,training,interference,NA,NA,NA,NA,NA,NA,NA,NA,NA,NA,NA,263,263,3,1966
23,partial,load,training,interference,NA,NA,NA,NA,NA,NA,NA,NA,NA,NA,NA,748,748,3,3158
23,partial,load,training,interference,NA,NA,NA,NA,NA,NA,NA,NA,NA,NA,NA,681,681,3,2020
23,partial,load,training,interference,NA,NA,NA,NA,NA,NA,NA,NA,NA,NA,NA,485,485,3,1837
23,partial,load,training,interference,NA,NA,NA,NA,NA,NA,NA,NA,NA,NA,NA,791,791,3,2111
23,partial,load,training,interference,NA,NA,NA,NA,NA,NA,NA,NA,NA,NA,NA,591,591,3,2030
23,partial,load,training,interference,NA,NA,NA,NA,NA,NA,NA,NA,NA,NA,NA,603,603,3,1660
23,partial,load,training,interference,NA,NA,NA,NA,NA,NA,NA,NA,NA,NA,NA,738,738,3,2459
23,partial,load,training,interference,NA,NA,NA,NA,NA,NA,NA,NA,NA,NA,NA,308,738,1,2093
23,partial,load,training,interference,NA,NA,NA,NA,NA,NA,NA,NA,NA,NA,NA,475,475,3,2238
23,partial,load,training,interference,NA,NA,NA,NA,NA,NA,NA,NA,NA,NA,NA,280,280,3,3478
23,partial,load,training,interference,NA,NA,NA,NA,NA,NA,NA,NA,NA,NA,NA,682,682,3,2163
23,partial,load,training,interference,NA,NA,NA,NA,NA,NA,NA,NA,NA,NA,NA,642,642,3,2285
23,partial,load,training,interference,NA,NA,NA,NA,NA,NA,NA,NA,NA,NA,NA,594,594,3,1740
23,partial,load,training,interference,NA,NA,NA,NA,NA,NA,NA,NA,NA,NA,NA,738,738,3,1997
23,partial,load,training,interference,NA,NA,NA,NA,NA,NA,NA,NA,NA,NA,NA,637,637,3,2158
23,partial,load,training,interference,NA,NA,NA,NA,NA,NA,NA,NA,NA,NA,NA,163,163,3,1940
23,partial,load,training,interference,NA,NA,NA,NA,NA,NA,NA,NA,NA,NA,NA,384,384,3,2054
23,partial,load,training,interference,NA,NA,NA,NA,NA,NA,NA,NA,NA,NA,NA,361,361,3,1958
23,partial,load,training,interference,NA,NA,NA,NA,NA,NA,NA,NA,NA,NA,NA,735,735,3,2238
23,partial,load,training,interference,NA,NA,NA,NA,NA,NA,NA,NA,NA,NA,NA,391,391,3,2086
23,partial,load,training,interference,NA,NA,NA,NA,NA,NA,NA,NA,NA,NA,NA,524,524,3,2172
23,partial,load,training,interference,NA,NA,NA,NA,NA,NA,NA,NA,NA,NA,NA,84,84,3,1798
23,partial,load,training,interference,NA,NA,NA,NA,NA,NA,NA,NA,NA,NA,NA,509,509,3,2086
23,partial,load,training,interference,NA,NA,NA,NA,NA,NA,NA,NA,NA,NA,NA,914,914,3,1811
23,partial,load,training,interference,NA,NA,NA,NA,NA,NA,NA,NA,NA,NA,NA,847,847,3,2028
23,partial,load,training,interference,NA,NA,NA,NA,NA,NA,NA,NA,NA,NA,NA,93,93,3,1886
23,partial,load,training,interference,NA,NA,NA,NA,NA,NA,NA,NA,NA,NA,NA,825,825,3,1879
23,partial,load,training,interference,NA,NA,NA,NA,NA,NA,NA,NA,NA,NA,NA,584,584,3,2534
23,partial,load,training,interference,NA,NA,NA,NA,NA,NA,NA,NA,NA,NA,NA,859,859,3,1927
23,partial,load,training,interference,NA,NA,NA,NA,NA,NA,NA,NA,NA,NA,NA,841,841,3,1982
23,partial,load,training,interference,NA,NA,NA,NA,NA,NA,NA,NA,NA,NA,NA,47,47,3,1886
23,partial,load,training,interference,NA,NA,NA,NA,NA,NA,NA,NA,NA,NA,NA,617,617,3,1870
23,partial,load,training,interference,NA,NA,NA,NA,NA,NA,NA,NA,NA,NA,NA,591,591,3,1893
23,partial,load,training,interference,NA,NA,NA,NA,NA,NA,NA,NA,NA,NA,NA,309,309,3,1876
23,partial,load,training,interference,NA,NA,NA,NA,NA,NA,NA,NA,NA,NA,NA,824,824,3,1903
23,partial,load,training,interference,NA,NA,NA,NA,NA,NA,NA,NA,NA,NA,NA,758,758,3,2093
23,partial,load,training,interference,NA,NA,NA,NA,NA,NA,NA,NA,NA,NA,NA,913,923,2,1997
23,partial,load,training,interference,NA,NA,NA,NA,NA,NA,NA,NA,NA,NA,NA,684,684,3,2029
23,partial,load,training,interference,NA,NA,NA,NA,NA,NA,NA,NA,NA,NA,NA,386,386,3,1837
23,partial,load,training,interference,NA,NA,NA,NA,NA,NA,NA,NA,NA,NA,NA,724,724,3,1990
23,partial,load,training,interference,NA,NA,NA,NA,NA,NA,NA,NA,NA,NA,NA,485,485,3,1680
23,partial,load,training,interference,NA,NA,NA,NA,NA,NA,NA,NA,NA,NA,NA,906,485,0,3166
23,partial,load,testing,NA,stim05,triangle,striped,popolu,lu,0,tutuva,0,6,1,0,NA,NA,NA,14488
23,partial,load,testing,NA,stim02,square,striped,tutulu,lu,0,popodo,0,6,1,0,NA,NA,NA,12127
23,partial,load,testing,NA,stim06,triangle,spotted,popodo,do,0,tutva,0,6,1,0,NA,NA,NA,7348
23,partial,load,testing,NA,stim04,triangle,checkerboard,popobi,bi,0,gagado,0,6,1,0,NA,NA,NA,7112
23,partial,load,testing,NA,stim01,square,checkerboard,tutubi,bi,0,gagafa,0,6,1,0,NA,NA,NA,14414
23,partial,load,testing,NA,stim03,square,spotted,tutuva,va,1,popolo,0,6,1,0,NA,NA,NA,10988
23,partial,load,testing,NA,stim08,circle,striped,gagalu,lu,0,zzzzzz,0,6,1,0,NA,NA,NA,9793
23,partial,load,testing,NA,stim07,circle,checkerboard,gagafa,fa,1,zzzzzz,0,6,1,0,NA,NA,NA,8534
23,partial,load,testing,NA,stim09,circle,spotted,gagado,do,0,zzzzzz,0,6,1,0,NA,NA,NA,11101
24,unstructured,load,training,interference,NA,NA,NA,NA,NA,NA,NA,NA,NA,NA,NA,69,69,3,6289.1
24,unstructured,load,training,interference,NA,NA,NA,NA,NA,NA,NA,NA,NA,NA,NA,851,857,2,3659.6
24,unstructured,load,training,interference,NA,NA,NA,NA,NA,NA,NA,NA,NA,NA,NA,418,487,1,5233.5
24,unstructured,load,training,interference,NA,NA,NA,NA,NA,NA,NA,NA,NA,NA,NA,693,693,3,4328.8
24,unstructured,load,training,interference,NA,NA,NA,NA,NA,NA,NA,NA,NA,NA,NA,526,526,3,4253.8
24,unstructured,load,training,interference,NA,NA,NA,NA,NA,NA,NA,NA,NA,NA,NA,183,183,3,3715.1
24,unstructured,load,training,interference,NA,NA,NA,NA,NA,NA,NA,NA,NA,NA,NA,830,830,3,4035
24,unstructured,load,training,interference,NA,NA,NA,NA,NA,NA,NA,NA,NA,NA,NA,205,205,3,2848.9
24,unstructured,load,training,interference,NA,NA,NA,NA,NA,NA,NA,NA,NA,NA,NA,61,61,3,1660.4
24,unstructured,load,training,interference,NA,NA,NA,NA,NA,NA,NA,NA,NA,NA,NA,527,527,3,1770.6
24,unstructured,load,training,interference,NA,NA,NA,NA,NA,NA,NA,NA,NA,NA,NA,841,841,3,2322.1
24,unstructured,load,training,interference,NA,NA,NA,NA,NA,NA,NA,NA,NA,NA,NA,908,908,3,1832.1
24,unstructured,load,training,interference,NA,NA,NA,NA,NA,NA,NA,NA,NA,NA,NA,942,942,3,1390.3
24,unstructured,load,training,interference,NA,NA,NA,NA,NA,NA,NA,NA,NA,NA,NA,81,81,3,1935.6
24,unstructured,load,training,interference,NA,NA,NA,NA,NA,NA,NA,NA,NA,NA,NA,570,570,3,1497.4
24,unstructured,load,training,interference,NA,NA,NA,NA,NA,NA,NA,NA,NA,NA,NA,814,814,3,1798
24,unstructured,load,training,interference,NA,NA,NA,NA,NA,NA,NA,NA,NA,NA,NA,384,834,1,5102.1
24,unstructured,load,training,interference,NA,NA,NA,NA,NA,NA,NA,NA,NA,NA,NA,175,175,3,1714.2
24,unstructured,load,training,interference,NA,NA,NA,NA,NA,NA,NA,NA,NA,NA,NA,53,53,3,1500.8
24,unstructured,load,training,interference,NA,NA,NA,NA,NA,NA,NA,NA,NA,NA,NA,497,497,3,1440
24,unstructured,load,training,interference,NA,NA,NA,NA,NA,NA,NA,NA,NA,NA,NA,139,139,3,1566.3
24,unstructured,load,training,interference,NA,NA,NA,NA,NA,NA,NA,NA,NA,NA,NA,152,152,3,1875.5
24,unstructured,load,training,interference,NA,NA,NA,NA,NA,NA,NA,NA,NA,NA,NA,317,317,3,1760.4
24,unstructured,load,training,interference,NA,NA,NA,NA,NA,NA,NA,NA,NA,NA,NA,948,948,3,1670.9
24,unstructured,load,training,interference,NA,NA,NA,NA,NA,NA,NA,NA,NA,NA,NA,709,709,3,1662.9
24,unstructured,load,training,interference,NA,NA,NA,NA,NA,NA,NA,NA,NA,NA,NA,859,859,3,1239.3
24,unstructured,load,training,interference,NA,NA,NA,NA,NA,NA,NA,NA,NA,NA,NA,41,41,3,2697
24,unstructured,load,training,interference,NA,NA,NA,NA,NA,NA,NA,NA,NA,NA,NA,752,752,3,2389.3
24,unstructured,load,training,interference,NA,NA,NA,NA,NA,NA,NA,NA,NA,NA,NA,694,694,3,2199.7
24,unstructured,load,training,interference,NA,NA,NA,NA,NA,NA,NA,NA,NA,NA,NA,520,520,3,1402.6
24,unstructured,load,training,interference,NA,NA,NA,NA,NA,NA,NA,NA,NA,NA,NA,413,413,3,1408.6
24,unstructured,load,training,interference,NA,NA,NA,NA,NA,NA,NA,NA,NA,NA,NA,309,309,3,1761.9
24,unstructured,load,training,interference,NA,NA,NA,NA,NA,NA,NA,NA,NA,NA,NA,179,179,3,1939.7
24,unstructured,load,training,interference,NA,NA,NA,NA,NA,NA,NA,NA,NA,NA,NA,470,470,3,1666.8
24,unstructured,load,training,interference,NA,NA,NA,NA,NA,NA,NA,NA,NA,NA,NA,153,153,3,2947.9
24,unstructured,load,training,interference,NA,NA,NA,NA,NA,NA,NA,NA,NA,NA,NA,740,740,3,1598
24,unstructured,load,training,interference,NA,NA,NA,NA,NA,NA,NA,NA,NA,NA,NA,952,950,2,1709.1
24,unstructured,load,training,interference,NA,NA,NA,NA,NA,NA,NA,NA,NA,NA,NA,841,841,3,2074.9
24,unstructured,load,training,interference,NA,NA,NA,NA,NA,NA,NA,NA,NA,NA,NA,605,605,3,2142
24,unstructured,load,training,interference,NA,NA,NA,NA,NA,NA,NA,NA,NA,NA,NA,97,97,3,2266.6
24,unstructured,load,training,interference,NA,NA,NA,NA,NA,NA,NA,NA,NA,NA,NA,702,703,2,4602.9
24,unstructured,load,training,interference,NA,NA,NA,NA,NA,NA,NA,NA,NA,NA,NA,480,480,3,1555.6
24,unstructured,load,training,interference,NA,NA,NA,NA,NA,NA,NA,NA,NA,NA,NA,751,750,2,1752.6
24,unstructured,load,training,interference,NA,NA,NA,NA,NA,NA,NA,NA,NA,NA,NA,497,497,3,1524.5
24,unstructured,load,training,interference,NA,NA,NA,NA,NA,NA,NA,NA,NA,NA,NA,408,408,3,2099.6
24,unstructured,load,training,interference,NA,NA,NA,NA,NA,NA,NA,NA,NA,NA,NA,57,57,3,1895
24,unstructured,load,training,interference,NA,NA,NA,NA,NA,NA,NA,NA,NA,NA,NA,953,953,3,2432.4
24,unstructured,load,training,interference,NA,NA,NA,NA,NA,NA,NA,NA,NA,NA,NA,869,869,3,2384.8
24,unstructured,load,training,interference,NA,NA,NA,NA,NA,NA,NA,NA,NA,NA,NA,140,140,3,1808.2
24,unstructured,load,training,interference,NA,NA,NA,NA,NA,NA,NA,NA,NA,NA,NA,286,286,3,2204.4
24,unstructured,load,training,interference,NA,NA,NA,NA,NA,NA,NA,NA,NA,NA,NA,915,915,3,1487.8
24,unstructured,load,training,interference,NA,NA,NA,NA,NA,NA,NA,NA,NA,NA,NA,284,284,3,1625.7
24,unstructured,load,training,interference,NA,NA,NA,NA,NA,NA,NA,NA,NA,NA,NA,57,57,3,1849.5
24,unstructured,load,training,interference,NA,NA,NA,NA,NA,NA,NA,NA,NA,NA,NA,251,251,3,1351.8
24,unstructured,load,training,interference,NA,NA,NA,NA,NA,NA,NA,NA,NA,NA,NA,719,719,3,1811.5
24,unstructured,load,testing,NA,stim07,circle,checkerboard,kikiva,va,1,bebepu,0,6,1,0,NA,NA,NA,11405.6
24,unstructured,load,testing,NA,stim04,triangle,checkerboard,beberi,ri,1,zzzzzz,0,6,1,0,NA,NA,NA,17349.9
24,unstructured,load,testing,NA,stim08,circle,striped,kikifa,fa,1,lelesa,0,5,0.833333333,0.166666667,NA,NA,NA,7141.4
24,unstructured,load,testing,NA,stim01,square,checkerboard,lalabi,bi,1,kikidu,0,6,1,0,NA,NA,NA,8716
24,unstructured,load,testing,NA,stim06,triangle,spotted,bebeni,ni,1,bebefe,0,2,0.333333333,0.666666667,NA,NA,NA,11339.9
24,unstructured,load,testing,NA,stim05,triangle,striped,bebepa,pa,1,lelesu,0,4,0.666666667,0.333333333,NA,NA,NA,8249.6
24,unstructured,load,testing,NA,stim03,square,spotted,lalalu,lu,1,zzzzzz,0,6,1,0,NA,NA,NA,4876.2
24,unstructured,load,testing,NA,stim09,circle,spotted,kikido,do,1,zzzzzz,0,6,1,0,NA,NA,NA,5317.8
24,unstructured,load,testing,NA,stim02,square,striped,lalasu,su,1,zzzzzz,0,6,1,0,NA,NA,NA,6083.9
25,unstructured,load,training,interference,NA,NA,NA,NA,NA,NA,NA,NA,NA,NA,NA,81,81,3,3562
25,unstructured,load,training,interference,NA,NA,NA,NA,NA,NA,NA,NA,NA,NA,NA,37,37,3,2958.1
25,unstructured,load,training,interference,NA,NA,NA,NA,NA,NA,NA,NA,NA,NA,NA,635,635,3,3507.5
25,unstructured,load,training,interference,NA,NA,NA,NA,NA,NA,NA,NA,NA,NA,NA,184,184,3,2840.9
25,unstructured,load,training,interference,NA,NA,NA,NA,NA,NA,NA,NA,NA,NA,NA,359,359,3,2135.4
25,unstructured,load,training,interference,NA,NA,NA,NA,NA,NA,NA,NA,NA,NA,NA,96,96,3,2101.2
25,unstructured,load,training,interference,NA,NA,NA,NA,NA,NA,NA,NA,NA,NA,NA,271,271,3,2401.5
25,unstructured,load,training,interference,NA,NA,NA,NA,NA,NA,NA,NA,NA,NA,NA,91,91,3,1786.7
25,unstructured,load,training,interference,NA,NA,NA,NA,NA,NA,NA,NA,NA,NA,NA,261,261,3,1822
25,unstructured,load,training,interference,NA,NA,NA,NA,NA,NA,NA,NA,NA,NA,NA,508,508,3,1709.3
25,unstructured,load,training,interference,NA,NA,NA,NA,NA,NA,NA,NA,NA,NA,NA,826,826,3,2301.5
25,unstructured,load,training,interference,NA,NA,NA,NA,NA,NA,NA,NA,NA,NA,NA,719,719,3,2597.7
25,unstructured,load,training,interference,NA,NA,NA,NA,NA,NA,NA,NA,NA,NA,NA,839,839,3,2181.7
25,unstructured,load,training,interference,NA,NA,NA,NA,NA,NA,NA,NA,NA,NA,NA,241,241,3,3625.2
25,unstructured,load,training,interference,NA,NA,NA,NA,NA,NA,NA,NA,NA,NA,NA,360,360,3,2492.4
25,unstructured,load,training,interference,NA,NA,NA,NA,NA,NA,NA,NA,NA,NA,NA,271,271,3,1943
25,unstructured,load,training,interference,NA,NA,NA,NA,NA,NA,NA,NA,NA,NA,NA,753,371,0,3154
25,unstructured,load,training,interference,NA,NA,NA,NA,NA,NA,NA,NA,NA,NA,NA,197,197,3,1828.8
25,unstructured,load,training,interference,NA,NA,NA,NA,NA,NA,NA,NA,NA,NA,NA,306,306,3,1883
25,unstructured,load,training,interference,NA,NA,NA,NA,NA,NA,NA,NA,NA,NA,NA,528,528,3,1731.5
25,unstructured,load,training,interference,NA,NA,NA,NA,NA,NA,NA,NA,NA,NA,NA,793,793,3,2048.5
25,unstructured,load,training,interference,NA,NA,NA,NA,NA,NA,NA,NA,NA,NA,NA,293,293,3,1887.5
25,unstructured,load,training,interference,NA,NA,NA,NA,NA,NA,NA,NA,NA,NA,NA,172,273,1,1767.4
25,unstructured,load,training,interference,NA,NA,NA,NA,NA,NA,NA,NA,NA,NA,NA,583,583,3,2547.2
25,unstructured,load,training,interference,NA,NA,NA,NA,NA,NA,NA,NA,NA,NA,NA,752,752,3,2222.7
25,unstructured,load,training,interference,NA,NA,NA,NA,NA,NA,NA,NA,NA,NA,NA,971,971,3,2543
25,unstructured,load,training,interference,NA,NA,NA,NA,NA,NA,NA,NA,NA,NA,NA,86,86,3,1914.5
25,unstructured,load,training,interference,NA,NA,NA,NA,NA,NA,NA,NA,NA,NA,NA,863,863,3,1772.6
25,unstructured,load,training,interference,NA,NA,NA,NA,NA,NA,NA,NA,NA,NA,NA,163,163,3,1656.5
25,unstructured,load,training,interference,NA,NA,NA,NA,NA,NA,NA,NA,NA,NA,NA,952,952,3,1656.9
25,unstructured,load,training,interference,NA,NA,NA,NA,NA,NA,NA,NA,NA,NA,NA,28,28,3,1618.8
25,unstructured,load,training,interference,NA,NA,NA,NA,NA,NA,NA,NA,NA,NA,NA,319,319,3,1753.6
25,unstructured,load,training,interference,NA,NA,NA,NA,NA,NA,NA,NA,NA,NA,NA,953,953,3,1692.7
25,unstructured,load,training,interference,NA,NA,NA,NA,NA,NA,NA,NA,NA,NA,NA,137,137,3,1838.2
25,unstructured,load,training,interference,NA,NA,NA,NA,NA,NA,NA,NA,NA,NA,NA,795,795,3,1822.2
25,unstructured,load,training,interference,NA,NA,NA,NA,NA,NA,NA,NA,NA,NA,NA,169,169,3,1712.3
25,unstructured,load,training,interference,NA,NA,NA,NA,NA,NA,NA,NA,NA,NA,NA,283,283,3,1940.1
25,unstructured,load,training,interference,NA,NA,NA,NA,NA,NA,NA,NA,NA,NA,NA,846,846,3,2956.7
25,unstructured,load,training,interference,NA,NA,NA,NA,NA,NA,NA,NA,NA,NA,NA,649,649,3,2145.5
25,unstructured,load,training,interference,NA,NA,NA,NA,NA,NA,NA,NA,NA,NA,NA,380,380,3,1800.9
25,unstructured,load,training,interference,NA,NA,NA,NA,NA,NA,NA,NA,NA,NA,NA,413,393,1,1678.5
25,unstructured,load,training,interference,NA,NA,NA,NA,NA,NA,NA,NA,NA,NA,NA,92,92,3,2479.3
25,unstructured,load,training,interference,NA,NA,NA,NA,NA,NA,NA,NA,NA,NA,NA,694,694,3,1816.1
25,unstructured,load,training,interference,NA,NA,NA,NA,NA,NA,NA,NA,NA,NA,NA,729,729,3,2020.3
25,unstructured,load,training,interference,NA,NA,NA,NA,NA,NA,NA,NA,NA,NA,NA,625,625,3,1465.8
25,unstructured,load,training,interference,NA,NA,NA,NA,NA,NA,NA,NA,NA,NA,NA,925,625,2,1623.6
25,unstructured,load,training,interference,NA,NA,NA,NA,NA,NA,NA,NA,NA,NA,NA,168,168,3,1580
25,unstructured,load,training,interference,NA,NA,NA,NA,NA,NA,NA,NA,NA,NA,NA,63,163,2,1560
25,unstructured,load,training,interference,NA,NA,NA,NA,NA,NA,NA,NA,NA,NA,NA,924,924,3,1854.8
25,unstructured,load,training,interference,NA,NA,NA,NA,NA,NA,NA,NA,NA,NA,NA,913,913,3,1785.1
25,unstructured,load,training,interference,NA,NA,NA,NA,NA,NA,NA,NA,NA,NA,NA,495,495,3,1426.3
25,unstructured,load,training,interference,NA,NA,NA,NA,NA,NA,NA,NA,NA,NA,NA,97,97,3,1800.9
25,unstructured,load,training,interference,NA,NA,NA,NA,NA,NA,NA,NA,NA,NA,NA,860,860,3,1586.3
25,unstructured,load,training,interference,NA,NA,NA,NA,NA,NA,NA,NA,NA,NA,NA,805,805,3,1575.4
25,unstructured,load,training,interference,NA,NA,NA,NA,NA,NA,NA,NA,NA,NA,NA,914,914,3,1803.3
25,unstructured,load,testing,NA,stim04,triangle,checkerboard,kikifa,fa,1,kikipa,0,1,0.166666667,0.833333333,NA,NA,NA,5397
25,unstructured,load,testing,NA,stim05,triangle,striped,kikipa,pa,1,kikilu,0,2,0.333333333,0.666666667,NA,NA,NA,5791.5
25,unstructured,load,testing,NA,stim02,square,striped,huhubi,bi,1,huhubi,1,0,0,1,NA,NA,NA,28676.3
25,unstructured,load,testing,NA,stim03,square,spotted,huhuni,ni,1,huhuni,1,0,0,1,NA,NA,NA,4423.6
25,unstructured,load,testing,NA,stim08,circle,striped,gagasu,su,1,gagasu,1,0,0,1,NA,NA,NA,6426.6
25,unstructured,load,testing,NA,stim06,triangle,spotted,kikilu,lu,1,kilifu,0,2,0.333333333,0.666666667,NA,NA,NA,9873.9
25,unstructured,load,testing,NA,stim09,circle,spotted,gagava,va,1,gagado,0,2,0.333333333,0.666666667,NA,NA,NA,5603.9
25,unstructured,load,testing,NA,stim07,circle,checkerboard,gagado,do,1,gagasu,0,2,0.333333333,0.666666667,NA,NA,NA,4366.8
25,unstructured,load,testing,NA,stim01,square,checkerboard,huhuri,ri,1,huhuri,1,0,0,1,NA,NA,NA,7761
26,partial,load,training,interference,NA,NA,NA,NA,NA,NA,NA,NA,NA,NA,NA,48,48,3,6710.6
26,partial,load,training,interference,NA,NA,NA,NA,NA,NA,NA,NA,NA,NA,NA,497,497,3,4085.6
26,partial,load,training,interference,NA,NA,NA,NA,NA,NA,NA,NA,NA,NA,NA,268,268,3,4918.5
26,partial,load,training,interference,NA,NA,NA,NA,NA,NA,NA,NA,NA,NA,NA,613,613,3,4694.7
26,partial,load,training,interference,NA,NA,NA,NA,NA,NA,NA,NA,NA,NA,NA,29,121,1,4169.1
26,partial,load,training,interference,NA,NA,NA,NA,NA,NA,NA,NA,NA,NA,NA,51,51,3,4609
26,partial,load,training,interference,NA,NA,NA,NA,NA,NA,NA,NA,NA,NA,NA,79,79,3,4166.6
26,partial,load,training,interference,NA,NA,NA,NA,NA,NA,NA,NA,NA,NA,NA,703,703,3,3613.6
26,partial,load,training,interference,NA,NA,NA,NA,NA,NA,NA,NA,NA,NA,NA,849,849,3,3586.9
26,partial,load,training,interference,NA,NA,NA,NA,NA,NA,NA,NA,NA,NA,NA,397,397,3,5113.9
26,partial,load,training,interference,NA,NA,NA,NA,NA,NA,NA,NA,NA,NA,NA,92,92,3,3325.4
26,partial,load,training,interference,NA,NA,NA,NA,NA,NA,NA,NA,NA,NA,NA,48,48,3,10134.1
26,partial,load,training,interference,NA,NA,NA,NA,NA,NA,NA,NA,NA,NA,NA,147,47,2,3788.6
26,partial,load,training,interference,NA,NA,NA,NA,NA,NA,NA,NA,NA,NA,NA,968,968,3,4026.3
26,partial,load,training,interference,NA,NA,NA,NA,NA,NA,NA,NA,NA,NA,NA,261,961,2,3883.1
